success,timeout,failed_images,failed_audio,failed_video,trial_type,trial_index,time_elapsed,internal_node_id,condition,rt,stimulus,response,question_order,accuracy,participant_id,ctime
TRUE,FALSE,[],[],[],preload,0,406,0.0-0.0,"{""contextPart1"":""Sue runs a language school. She's currently working through a list of her teachers — Kate, Tom, Charley, Tatiana, and Riccardo — to identify who speaks Spanish. She occasionally consults Cole, who knows some teachers better. Sue keeps track on this list:"",""contextPart2"":""Next up, she wants to record in the list whether <b>CHARLEY</b> speaks Spanish. Sue says to her business partner:"",""utterance"":""Cole thinks that Charley speaks Spanish"",""questionFIRST"":""Given what you have read above, how likely is it that Charley speaks Spanish?"",""questionSECOND"":""Given what you have read above, how likely is it that Cole believes that Charley speaks Spanish?"",""qud"":""ai"",""content"":""charley"",""image"":""charley-ai""}",NA,NA,NA,NA,NA,26f84373-3e05-4eee-8ba2-585097ed4b2b,2024-03-27 14:00:02 CET
NA,NA,NA,NA,NA,html-button-response,1,13160,0.0-1.0,"{""contextPart1"":""Sue runs a language school. She's currently working through a list of her teachers — Kate, Tom, Charley, Tatiana, and Riccardo — to identify who speaks Spanish. She occasionally consults Cole, who knows some teachers better. Sue keeps track on this list:"",""contextPart2"":""Next up, she wants to record in the list whether <b>CHARLEY</b> speaks Spanish. Sue says to her business partner:"",""utterance"":""Cole thinks that Charley speaks Spanish"",""questionFIRST"":""Given what you have read above, how likely is it that Charley speaks Spanish?"",""questionSECOND"":""Given what you have read above, how likely is it that Cole believes that Charley speaks Spanish?"",""qud"":""ai"",""content"":""charley"",""image"":""charley-ai""}",12751,"<h3>Instructions</h3>  <p style='text-align:left'>In this experiment, you will read a short text and see an image. We will ask you two questions about what you have read. You will give your responses on a slider. </p>  <p style='text-align:left'>At the end of the experiment, we will ask you some demographic questions. The experiment will take less than two minutes.</p>  <p style='text-align:left' font size=""1"">By clicking on the button below you agree to participate in the experiment, which is conducted by language researchers. You may withdraw at any time. The data collected will be anonymous and confidential. If you have any questions, you may contact the experimenters through Prolific's platform.</p>",0,NA,NA,26f84373-3e05-4eee-8ba2-585097ed4b2b,2024-03-27 14:00:02 CET
NA,NA,NA,NA,NA,multiple-slider,2,44400,0.0-2.0-0.0,"{""contextPart1"":""Sue runs a language school. She's currently working through a list of her teachers — Kate, Tom, Charley, Tatiana, and Riccardo — to identify who speaks Spanish. She occasionally consults Cole, who knows some teachers better. Sue keeps track on this list:"",""contextPart2"":""Next up, she wants to record in the list whether <b>CHARLEY</b> speaks Spanish. Sue says to her business partner:"",""utterance"":""Cole thinks that Charley speaks Spanish"",""questionFIRST"":""Given what you have read above, how likely is it that Charley speaks Spanish?"",""questionSECOND"":""Given what you have read above, how likely is it that Cole believes that Charley speaks Spanish?"",""qud"":""ai"",""content"":""charley"",""image"":""charley-ai""}",31238.30000000447,NA,"{""stimFIRST"":56,""stimSECOND"":100}","[0,1]",NA,26f84373-3e05-4eee-8ba2-585097ed4b2b,2024-03-27 14:00:02 CET
NA,NA,NA,NA,NA,survey,3,60501,0.0-3.0,"{""contextPart1"":""Sue runs a language school. She's currently working through a list of her teachers — Kate, Tom, Charley, Tatiana, and Riccardo — to identify who speaks Spanish. She occasionally consults Cole, who knows some teachers better. Sue keeps track on this list:"",""contextPart2"":""Next up, she wants to record in the list whether <b>CHARLEY</b> speaks Spanish. Sue says to her business partner:"",""utterance"":""Cole thinks that Charley speaks Spanish"",""questionFIRST"":""Given what you have read above, how likely is it that Charley speaks Spanish?"",""questionSECOND"":""Given what you have read above, how likely is it that Cole believes that Charley speaks Spanish?"",""qud"":""ai"",""content"":""charley"",""image"":""charley-ai""}",16061,NA,"{""P0_Q0"":null,""age"":""54"",""gender"":""non-binary"",""language"":""yes"",""amE"":""yes"",""edu"":""some college"",""comments"":""""}",NA,[],26f84373-3e05-4eee-8ba2-585097ed4b2b,2024-03-27 14:00:02 CET
TRUE,FALSE,[],[],[],preload,0,420,0.0-0.0,"{""contextPart1"":""Sue runs a fitness club. She’s currently working through a list of her clients — Kate, Tom, Charley, Tatiana, and Riccardo —  to identify who ran ten miles over the weekend. She occasionally consults her assistant Cole, who knows some clients better. Here is Sue's list:"",""contextPart2"":""Next up, she wants to record in the list whether <b>JACKSON</b> ran ten miles. Sue says to her business partner:"",""utterance"":""Cole knows that Jackson ran ten miles"",""questionFIRST"":""Given what you have read above, how likely is it that Jackson ran ten miles?"",""questionSECOND"":""Given what you have read above, how likely is it that Cole believes that Jackson ran ten miles?"",""qud"":""ai"",""content"":""jackson"",""image"":""jackson-ai""}",NA,NA,NA,NA,NA,1c0fc45a-7b12-4a15-b093-dd2dda03a6e6,2024-03-27 14:03:51 CET
NA,NA,NA,NA,NA,html-button-response,1,8976,0.0-1.0,"{""contextPart1"":""Sue runs a fitness club. She’s currently working through a list of her clients — Kate, Tom, Charley, Tatiana, and Riccardo —  to identify who ran ten miles over the weekend. She occasionally consults her assistant Cole, who knows some clients better. Here is Sue's list:"",""contextPart2"":""Next up, she wants to record in the list whether <b>JACKSON</b> ran ten miles. Sue says to her business partner:"",""utterance"":""Cole knows that Jackson ran ten miles"",""questionFIRST"":""Given what you have read above, how likely is it that Jackson ran ten miles?"",""questionSECOND"":""Given what you have read above, how likely is it that Cole believes that Jackson ran ten miles?"",""qud"":""ai"",""content"":""jackson"",""image"":""jackson-ai""}",8556,"<h3>Instructions</h3>  <p style='text-align:left'>In this experiment, you will read a short text and see an image. We will ask you two questions about what you have read. You will give your responses on a slider. </p>  <p style='text-align:left'>At the end of the experiment, we will ask you some demographic questions. The experiment will take less than two minutes.</p>  <p style='text-align:left' font size=""1"">By clicking on the button below you agree to participate in the experiment, which is conducted by language researchers. You may withdraw at any time. The data collected will be anonymous and confidential. If you have any questions, you may contact the experimenters through Prolific's platform.</p>",0,NA,NA,1c0fc45a-7b12-4a15-b093-dd2dda03a6e6,2024-03-27 14:03:51 CET
NA,NA,NA,NA,NA,multiple-slider,2,79864,0.0-2.0-0.0,"{""contextPart1"":""Sue runs a fitness club. She’s currently working through a list of her clients — Kate, Tom, Charley, Tatiana, and Riccardo —  to identify who ran ten miles over the weekend. She occasionally consults her assistant Cole, who knows some clients better. Here is Sue's list:"",""contextPart2"":""Next up, she wants to record in the list whether <b>JACKSON</b> ran ten miles. Sue says to her business partner:"",""utterance"":""Cole knows that Jackson ran ten miles"",""questionFIRST"":""Given what you have read above, how likely is it that Jackson ran ten miles?"",""questionSECOND"":""Given what you have read above, how likely is it that Cole believes that Jackson ran ten miles?"",""qud"":""ai"",""content"":""jackson"",""image"":""jackson-ai""}",70883,NA,"{""stimFIRST"":92,""stimSECOND"":100}","[0,1]",NA,1c0fc45a-7b12-4a15-b093-dd2dda03a6e6,2024-03-27 14:03:51 CET
NA,NA,NA,NA,NA,survey,3,99449,0.0-3.0,"{""contextPart1"":""Sue runs a fitness club. She’s currently working through a list of her clients — Kate, Tom, Charley, Tatiana, and Riccardo —  to identify who ran ten miles over the weekend. She occasionally consults her assistant Cole, who knows some clients better. Here is Sue's list:"",""contextPart2"":""Next up, she wants to record in the list whether <b>JACKSON</b> ran ten miles. Sue says to her business partner:"",""utterance"":""Cole knows that Jackson ran ten miles"",""questionFIRST"":""Given what you have read above, how likely is it that Jackson ran ten miles?"",""questionSECOND"":""Given what you have read above, how likely is it that Cole believes that Jackson ran ten miles?"",""qud"":""ai"",""content"":""jackson"",""image"":""jackson-ai""}",19528,NA,"{""P0_Q0"":null,""age"":""39"",""gender"":""female"",""language"":""yes"",""amE"":""yes"",""edu"":""some college"",""comments"":""""}",NA,[],1c0fc45a-7b12-4a15-b093-dd2dda03a6e6,2024-03-27 14:03:51 CET
TRUE,FALSE,[],[],[],preload,0,494,0.0-0.0,"{""contextPart1"":""Sue runs a language school. She's currently working through a list of her teachers — Kate, Tom, Charley, Tatiana, and Riccardo — to identify who speaks Spanish. She occasionally consults Cole, who knows some teachers better. Sue keeps track on this list:"",""contextPart2"":""Next up, she wants to record in the list whether <b>CHARLEY</b> speaks Spanish. Sue says to her business partner:"",""utterance"":""Cole doesn't think that Charley speaks Spanish"",""questionFIRST"":""Given what you have read above, how likely is it that Charley speaks Spanish?"",""questionSECOND"":""Given what you have read above, how likely is it that Cole believes that Charley speaks Spanish?"",""qud"":""ai"",""content"":""charley"",""image"":""charley-ai""}",NA,NA,NA,NA,NA,5e8a508f-2305-44f3-9234-5e9b1149e209,2024-03-27 14:07:45 CET
NA,NA,NA,NA,NA,html-button-response,1,4121,0.0-1.0,"{""contextPart1"":""Sue runs a language school. She's currently working through a list of her teachers — Kate, Tom, Charley, Tatiana, and Riccardo — to identify who speaks Spanish. She occasionally consults Cole, who knows some teachers better. Sue keeps track on this list:"",""contextPart2"":""Next up, she wants to record in the list whether <b>CHARLEY</b> speaks Spanish. Sue says to her business partner:"",""utterance"":""Cole doesn't think that Charley speaks Spanish"",""questionFIRST"":""Given what you have read above, how likely is it that Charley speaks Spanish?"",""questionSECOND"":""Given what you have read above, how likely is it that Cole believes that Charley speaks Spanish?"",""qud"":""ai"",""content"":""charley"",""image"":""charley-ai""}",3624,"<h3>Instructions</h3>  <p style='text-align:left'>In this experiment, you will read a short text and see an image. We will ask you two questions about what you have read. You will give your responses on a slider. </p>  <p style='text-align:left'>At the end of the experiment, we will ask you some demographic questions. The experiment will take less than two minutes.</p>  <p style='text-align:left' font size=""1"">By clicking on the button below you agree to participate in the experiment, which is conducted by language researchers. You may withdraw at any time. The data collected will be anonymous and confidential. If you have any questions, you may contact the experimenters through Prolific's platform.</p>",0,NA,NA,5e8a508f-2305-44f3-9234-5e9b1149e209,2024-03-27 14:07:45 CET
NA,NA,NA,NA,NA,multiple-slider,2,66101,0.0-2.0-0.0,"{""contextPart1"":""Sue runs a language school. She's currently working through a list of her teachers — Kate, Tom, Charley, Tatiana, and Riccardo — to identify who speaks Spanish. She occasionally consults Cole, who knows some teachers better. Sue keeps track on this list:"",""contextPart2"":""Next up, she wants to record in the list whether <b>CHARLEY</b> speaks Spanish. Sue says to her business partner:"",""utterance"":""Cole doesn't think that Charley speaks Spanish"",""questionFIRST"":""Given what you have read above, how likely is it that Charley speaks Spanish?"",""questionSECOND"":""Given what you have read above, how likely is it that Cole believes that Charley speaks Spanish?"",""qud"":""ai"",""content"":""charley"",""image"":""charley-ai""}",61975,NA,"{""stimFIRST"":24,""stimSECOND"":22}","[0,1]",NA,5e8a508f-2305-44f3-9234-5e9b1149e209,2024-03-27 14:07:45 CET
NA,NA,NA,NA,NA,survey,3,95274,0.0-3.0,"{""contextPart1"":""Sue runs a language school. She's currently working through a list of her teachers — Kate, Tom, Charley, Tatiana, and Riccardo — to identify who speaks Spanish. She occasionally consults Cole, who knows some teachers better. Sue keeps track on this list:"",""contextPart2"":""Next up, she wants to record in the list whether <b>CHARLEY</b> speaks Spanish. Sue says to her business partner:"",""utterance"":""Cole doesn't think that Charley speaks Spanish"",""questionFIRST"":""Given what you have read above, how likely is it that Charley speaks Spanish?"",""questionSECOND"":""Given what you have read above, how likely is it that Cole believes that Charley speaks Spanish?"",""qud"":""ai"",""content"":""charley"",""image"":""charley-ai""}",29065,NA,"{""P0_Q0"":null,""age"":""21"",""gender"":""male"",""language"":""yes"",""amE"":""yes"",""edu"":""graduated high school"",""comments"":""""}",NA,[],5e8a508f-2305-44f3-9234-5e9b1149e209,2024-03-27 14:07:45 CET
TRUE,FALSE,[],[],[],preload,0,756,0.0-0.0,"{""contextPart1"":""Sue runs a language school. She’s trying to figure out how well her five assistants Kate, Tom, Cole, Tatiana, and Riccardo know her remote teacher Charley. Sue keeps track on this list:"",""contextPart2"":""Next up, she wants to record in her list whether <b>COLE</b> believes that Charley speaks Spanish. Her business partner tells her:"",""utterance"":""Cole doesn't think that Charley speaks Spanish"",""questionFIRST"":""Given what you have read above, how likely is it that Cole believes that Charley speaks Spanish?"",""questionSECOND"":""Given what you have read above, how likely is it that Charley speaks Spanish?"",""qud"":""nai"",""content"":""charley"",""image"":""charley-nai""}",NA,NA,NA,NA,NA,9ac33004-20d9-431c-a8a4-ffa3c4408937,2024-03-27 14:16:38 CET
NA,NA,NA,NA,NA,html-button-response,1,4431,0.0-1.0,"{""contextPart1"":""Sue runs a language school. She’s trying to figure out how well her five assistants Kate, Tom, Cole, Tatiana, and Riccardo know her remote teacher Charley. Sue keeps track on this list:"",""contextPart2"":""Next up, she wants to record in her list whether <b>COLE</b> believes that Charley speaks Spanish. Her business partner tells her:"",""utterance"":""Cole doesn't think that Charley speaks Spanish"",""questionFIRST"":""Given what you have read above, how likely is it that Cole believes that Charley speaks Spanish?"",""questionSECOND"":""Given what you have read above, how likely is it that Charley speaks Spanish?"",""qud"":""nai"",""content"":""charley"",""image"":""charley-nai""}",3674,"<h3>Instructions</h3>  <p style='text-align:left'>In this experiment, you will read a short text and see an image. We will ask you two questions about what you have read. You will give your responses on a slider. </p>  <p style='text-align:left'>At the end of the experiment, we will ask you some demographic questions. The experiment will take less than two minutes.</p>  <p style='text-align:left' font size=""1"">By clicking on the button below you agree to participate in the experiment, which is conducted by language researchers. You may withdraw at any time. The data collected will be anonymous and confidential. If you have any questions, you may contact the experimenters through Prolific's platform.</p>",0,NA,NA,9ac33004-20d9-431c-a8a4-ffa3c4408937,2024-03-27 14:16:38 CET
NA,NA,NA,NA,NA,multiple-slider,2,138400,0.0-2.0-0.0,"{""contextPart1"":""Sue runs a language school. She’s trying to figure out how well her five assistants Kate, Tom, Cole, Tatiana, and Riccardo know her remote teacher Charley. Sue keeps track on this list:"",""contextPart2"":""Next up, she wants to record in her list whether <b>COLE</b> believes that Charley speaks Spanish. Her business partner tells her:"",""utterance"":""Cole doesn't think that Charley speaks Spanish"",""questionFIRST"":""Given what you have read above, how likely is it that Cole believes that Charley speaks Spanish?"",""questionSECOND"":""Given what you have read above, how likely is it that Charley speaks Spanish?"",""qud"":""nai"",""content"":""charley"",""image"":""charley-nai""}",133866.19999999923,NA,"{""stimFIRST"":19,""stimSECOND"":56}","[0,1]",NA,9ac33004-20d9-431c-a8a4-ffa3c4408937,2024-03-27 14:16:38 CET
NA,NA,NA,NA,NA,survey,3,178040,0.0-3.0,"{""contextPart1"":""Sue runs a language school. She’s trying to figure out how well her five assistants Kate, Tom, Cole, Tatiana, and Riccardo know her remote teacher Charley. Sue keeps track on this list:"",""contextPart2"":""Next up, she wants to record in her list whether <b>COLE</b> believes that Charley speaks Spanish. Her business partner tells her:"",""utterance"":""Cole doesn't think that Charley speaks Spanish"",""questionFIRST"":""Given what you have read above, how likely is it that Cole believes that Charley speaks Spanish?"",""questionSECOND"":""Given what you have read above, how likely is it that Charley speaks Spanish?"",""qud"":""nai"",""content"":""charley"",""image"":""charley-nai""}",39544,NA,"{""P0_Q0"":null,""age"":""43"",""gender"":""female"",""language"":""yes"",""amE"":""yes"",""edu"":""some college"",""comments"":""great study""}",NA,[],9ac33004-20d9-431c-a8a4-ffa3c4408937,2024-03-27 14:16:38 CET
TRUE,FALSE,[],[],[],preload,0,338,0.0-0.0,"{""contextPart1"":""Sue runs a fitness club. She’s trying to evaluate how well her five assistants Kate, Tom, Cole, Tatiana, and Riccardo know her client Jackson. Here is Sue's list:"",""contextPart2"":""Next up, she wants to record in her list whether <b>COLE</b> believes that Jackson ran ten miles. Sue’s business partner tells her:"",""utterance"":""Cole thinks that Jackson ran ten miles"",""questionFIRST"":""Given what you have read above, how likely is it that Cole believes that Jackson ran ten miles?"",""questionSECOND"":""Given what you have read above, how likely is it that Jackson ran ten miles?"",""qud"":""nai"",""content"":""jackson"",""image"":""jackson-nai""}",NA,NA,NA,NA,NA,e887023c-3a13-4fbd-9c7a-55d84225b52d,2024-03-27 14:30:46 CET
NA,NA,NA,NA,NA,html-button-response,1,4512,0.0-1.0,"{""contextPart1"":""Sue runs a fitness club. She’s trying to evaluate how well her five assistants Kate, Tom, Cole, Tatiana, and Riccardo know her client Jackson. Here is Sue's list:"",""contextPart2"":""Next up, she wants to record in her list whether <b>COLE</b> believes that Jackson ran ten miles. Sue’s business partner tells her:"",""utterance"":""Cole thinks that Jackson ran ten miles"",""questionFIRST"":""Given what you have read above, how likely is it that Cole believes that Jackson ran ten miles?"",""questionSECOND"":""Given what you have read above, how likely is it that Jackson ran ten miles?"",""qud"":""nai"",""content"":""jackson"",""image"":""jackson-nai""}",4168,"<h3>Instructions</h3>  <p style='text-align:left'>In this experiment, you will read a short text and see an image. We will ask you two questions about what you have read. You will give your responses on a slider. </p>  <p style='text-align:left'>At the end of the experiment, we will ask you some demographic questions. The experiment will take less than two minutes.</p>  <p style='text-align:left' font size=""1"">By clicking on the button below you agree to participate in the experiment, which is conducted by language researchers. You may withdraw at any time. The data collected will be anonymous and confidential. If you have any questions, you may contact the experimenters through Prolific's platform.</p>",0,NA,NA,e887023c-3a13-4fbd-9c7a-55d84225b52d,2024-03-27 14:30:46 CET
NA,NA,NA,NA,NA,multiple-slider,2,22545,0.0-2.0-0.0,"{""contextPart1"":""Sue runs a fitness club. She’s trying to evaluate how well her five assistants Kate, Tom, Cole, Tatiana, and Riccardo know her client Jackson. Here is Sue's list:"",""contextPart2"":""Next up, she wants to record in her list whether <b>COLE</b> believes that Jackson ran ten miles. Sue’s business partner tells her:"",""utterance"":""Cole thinks that Jackson ran ten miles"",""questionFIRST"":""Given what you have read above, how likely is it that Cole believes that Jackson ran ten miles?"",""questionSECOND"":""Given what you have read above, how likely is it that Jackson ran ten miles?"",""qud"":""nai"",""content"":""jackson"",""image"":""jackson-nai""}",18026.099999997765,NA,"{""stimFIRST"":100,""stimSECOND"":87}","[0,1]",NA,e887023c-3a13-4fbd-9c7a-55d84225b52d,2024-03-27 14:30:46 CET
NA,NA,NA,NA,NA,survey,3,34431,0.0-3.0,"{""contextPart1"":""Sue runs a fitness club. She’s trying to evaluate how well her five assistants Kate, Tom, Cole, Tatiana, and Riccardo know her client Jackson. Here is Sue's list:"",""contextPart2"":""Next up, she wants to record in her list whether <b>COLE</b> believes that Jackson ran ten miles. Sue’s business partner tells her:"",""utterance"":""Cole thinks that Jackson ran ten miles"",""questionFIRST"":""Given what you have read above, how likely is it that Cole believes that Jackson ran ten miles?"",""questionSECOND"":""Given what you have read above, how likely is it that Jackson ran ten miles?"",""qud"":""nai"",""content"":""jackson"",""image"":""jackson-nai""}",11771,NA,"{""P0_Q0"":null,""age"":""37"",""gender"":""female"",""language"":""yes"",""amE"":""yes"",""edu"":""graduated college"",""comments"":""""}",NA,[],e887023c-3a13-4fbd-9c7a-55d84225b52d,2024-03-27 14:30:46 CET
TRUE,FALSE,[],[],[],preload,0,567,0.0-0.0,"{""contextPart1"":""Sue runs a language school. She's currently working through a list of her teachers — Kate, Tom, Charley, Tatiana, and Riccardo — to identify who speaks Spanish. She occasionally consults Cole, who knows some teachers better. Sue keeps track on this list:"",""contextPart2"":""Next up, she wants to record in the list whether <b>CHARLEY</b> speaks Spanish. Sue says to her business partner:"",""utterance"":""Cole thinks that Charley speaks Spanish"",""questionFIRST"":""Given what you have read above, how likely is it that Charley speaks Spanish?"",""questionSECOND"":""Given what you have read above, how likely is it that Cole believes that Charley speaks Spanish?"",""qud"":""ai"",""content"":""charley"",""image"":""charley-ai""}",NA,NA,NA,NA,NA,83d6bc47-6e83-495c-9fa2-d81152267a20,2024-03-27 14:34:05 CET
NA,NA,NA,NA,NA,html-button-response,1,2701,0.0-1.0,"{""contextPart1"":""Sue runs a language school. She's currently working through a list of her teachers — Kate, Tom, Charley, Tatiana, and Riccardo — to identify who speaks Spanish. She occasionally consults Cole, who knows some teachers better. Sue keeps track on this list:"",""contextPart2"":""Next up, she wants to record in the list whether <b>CHARLEY</b> speaks Spanish. Sue says to her business partner:"",""utterance"":""Cole thinks that Charley speaks Spanish"",""questionFIRST"":""Given what you have read above, how likely is it that Charley speaks Spanish?"",""questionSECOND"":""Given what you have read above, how likely is it that Cole believes that Charley speaks Spanish?"",""qud"":""ai"",""content"":""charley"",""image"":""charley-ai""}",2132,"<h3>Instructions</h3>  <p style='text-align:left'>In this experiment, you will read a short text and see an image. We will ask you two questions about what you have read. You will give your responses on a slider. </p>  <p style='text-align:left'>At the end of the experiment, we will ask you some demographic questions. The experiment will take less than two minutes.</p>  <p style='text-align:left' font size=""1"">By clicking on the button below you agree to participate in the experiment, which is conducted by language researchers. You may withdraw at any time. The data collected will be anonymous and confidential. If you have any questions, you may contact the experimenters through Prolific's platform.</p>",0,NA,NA,83d6bc47-6e83-495c-9fa2-d81152267a20,2024-03-27 14:34:05 CET
NA,NA,NA,NA,NA,multiple-slider,2,32761,0.0-2.0-0.0,"{""contextPart1"":""Sue runs a language school. She's currently working through a list of her teachers — Kate, Tom, Charley, Tatiana, and Riccardo — to identify who speaks Spanish. She occasionally consults Cole, who knows some teachers better. Sue keeps track on this list:"",""contextPart2"":""Next up, she wants to record in the list whether <b>CHARLEY</b> speaks Spanish. Sue says to her business partner:"",""utterance"":""Cole thinks that Charley speaks Spanish"",""questionFIRST"":""Given what you have read above, how likely is it that Charley speaks Spanish?"",""questionSECOND"":""Given what you have read above, how likely is it that Cole believes that Charley speaks Spanish?"",""qud"":""ai"",""content"":""charley"",""image"":""charley-ai""}",30056.100000000093,NA,"{""stimFIRST"":50,""stimSECOND"":73}","[0,1]",NA,83d6bc47-6e83-495c-9fa2-d81152267a20,2024-03-27 14:34:05 CET
NA,NA,NA,NA,NA,survey,3,44695,0.0-3.0,"{""contextPart1"":""Sue runs a language school. She's currently working through a list of her teachers — Kate, Tom, Charley, Tatiana, and Riccardo — to identify who speaks Spanish. She occasionally consults Cole, who knows some teachers better. Sue keeps track on this list:"",""contextPart2"":""Next up, she wants to record in the list whether <b>CHARLEY</b> speaks Spanish. Sue says to her business partner:"",""utterance"":""Cole thinks that Charley speaks Spanish"",""questionFIRST"":""Given what you have read above, how likely is it that Charley speaks Spanish?"",""questionSECOND"":""Given what you have read above, how likely is it that Cole believes that Charley speaks Spanish?"",""qud"":""ai"",""content"":""charley"",""image"":""charley-ai""}",11839,NA,"{""P0_Q0"":null,""age"":""43"",""gender"":""female"",""language"":""yes"",""amE"":""yes"",""edu"":""hold a higher degree"",""comments"":""""}",NA,[],83d6bc47-6e83-495c-9fa2-d81152267a20,2024-03-27 14:34:05 CET
TRUE,FALSE,[],[],[],preload,0,492,0.0-0.0,"{""contextPart1"":""Sue runs a language school. She’s trying to figure out how well her five assistants Kate, Tom, Cole, Tatiana, and Riccardo know her remote teacher Charley. Sue keeps track on this list:"",""contextPart2"":""Next up, she wants to record in her list whether <b>COLE</b> believes that Charley speaks Spanish. Her business partner tells her:"",""utterance"":""Cole knows that Charley speaks Spanish"",""questionFIRST"":""Given what you have read above, how likely is it that Cole believes that Charley speaks Spanish?"",""questionSECOND"":""Given what you have read above, how likely is it that Charley speaks Spanish?"",""qud"":""nai"",""content"":""charley"",""image"":""charley-nai""}",NA,NA,NA,NA,NA,333f318e-6889-4be2-97a5-09e95bc2bf32,2024-03-27 14:39:22 CET
NA,NA,NA,NA,NA,html-button-response,1,5163,0.0-1.0,"{""contextPart1"":""Sue runs a language school. She’s trying to figure out how well her five assistants Kate, Tom, Cole, Tatiana, and Riccardo know her remote teacher Charley. Sue keeps track on this list:"",""contextPart2"":""Next up, she wants to record in her list whether <b>COLE</b> believes that Charley speaks Spanish. Her business partner tells her:"",""utterance"":""Cole knows that Charley speaks Spanish"",""questionFIRST"":""Given what you have read above, how likely is it that Cole believes that Charley speaks Spanish?"",""questionSECOND"":""Given what you have read above, how likely is it that Charley speaks Spanish?"",""qud"":""nai"",""content"":""charley"",""image"":""charley-nai""}",4669,"<h3>Instructions</h3>  <p style='text-align:left'>In this experiment, you will read a short text and see an image. We will ask you two questions about what you have read. You will give your responses on a slider. </p>  <p style='text-align:left'>At the end of the experiment, we will ask you some demographic questions. The experiment will take less than two minutes.</p>  <p style='text-align:left' font size=""1"">By clicking on the button below you agree to participate in the experiment, which is conducted by language researchers. You may withdraw at any time. The data collected will be anonymous and confidential. If you have any questions, you may contact the experimenters through Prolific's platform.</p>",0,NA,NA,333f318e-6889-4be2-97a5-09e95bc2bf32,2024-03-27 14:39:22 CET
NA,NA,NA,NA,NA,multiple-slider,2,31088,0.0-2.0-0.0,"{""contextPart1"":""Sue runs a language school. She’s trying to figure out how well her five assistants Kate, Tom, Cole, Tatiana, and Riccardo know her remote teacher Charley. Sue keeps track on this list:"",""contextPart2"":""Next up, she wants to record in her list whether <b>COLE</b> believes that Charley speaks Spanish. Her business partner tells her:"",""utterance"":""Cole knows that Charley speaks Spanish"",""questionFIRST"":""Given what you have read above, how likely is it that Cole believes that Charley speaks Spanish?"",""questionSECOND"":""Given what you have read above, how likely is it that Charley speaks Spanish?"",""qud"":""nai"",""content"":""charley"",""image"":""charley-nai""}",25921.09999999404,NA,"{""stimFIRST"":98,""stimSECOND"":97}","[0,1]",NA,333f318e-6889-4be2-97a5-09e95bc2bf32,2024-03-27 14:39:22 CET
NA,NA,NA,NA,NA,survey,3,46758,0.0-3.0,"{""contextPart1"":""Sue runs a language school. She’s trying to figure out how well her five assistants Kate, Tom, Cole, Tatiana, and Riccardo know her remote teacher Charley. Sue keeps track on this list:"",""contextPart2"":""Next up, she wants to record in her list whether <b>COLE</b> believes that Charley speaks Spanish. Her business partner tells her:"",""utterance"":""Cole knows that Charley speaks Spanish"",""questionFIRST"":""Given what you have read above, how likely is it that Cole believes that Charley speaks Spanish?"",""questionSECOND"":""Given what you have read above, how likely is it that Charley speaks Spanish?"",""qud"":""nai"",""content"":""charley"",""image"":""charley-nai""}",15605,NA,"{""P0_Q0"":null,""age"":""25"",""gender"":""female"",""language"":""yes"",""amE"":""yes"",""edu"":""graduated college"",""comments"":""""}",NA,[],333f318e-6889-4be2-97a5-09e95bc2bf32,2024-03-27 14:39:22 CET
TRUE,FALSE,[],[],[],preload,0,461,0.0-0.0,"{""contextPart1"":""Sue runs a fitness club. She’s trying to evaluate how well her five assistants Kate, Tom, Cole, Tatiana, and Riccardo know her client Jackson. Here is Sue's list:"",""contextPart2"":""Next up, she wants to record in her list whether <b>COLE</b> believes that Jackson ran ten miles. Sue’s business partner tells her:"",""utterance"":""Cole doesn't think that Jackson ran ten miles"",""questionFIRST"":""Given what you have read above, how likely is it that Cole believes that Jackson ran ten miles?"",""questionSECOND"":""Given what you have read above, how likely is it that Jackson ran ten miles?"",""qud"":""nai"",""content"":""jackson"",""image"":""jackson-nai""}",NA,NA,NA,NA,NA,a6ae9cef-e0f5-4310-9f6d-e43d4bb60e2b,2024-03-27 14:42:25 CET
NA,NA,NA,NA,NA,html-button-response,1,10899,0.0-1.0,"{""contextPart1"":""Sue runs a fitness club. She’s trying to evaluate how well her five assistants Kate, Tom, Cole, Tatiana, and Riccardo know her client Jackson. Here is Sue's list:"",""contextPart2"":""Next up, she wants to record in her list whether <b>COLE</b> believes that Jackson ran ten miles. Sue’s business partner tells her:"",""utterance"":""Cole doesn't think that Jackson ran ten miles"",""questionFIRST"":""Given what you have read above, how likely is it that Cole believes that Jackson ran ten miles?"",""questionSECOND"":""Given what you have read above, how likely is it that Jackson ran ten miles?"",""qud"":""nai"",""content"":""jackson"",""image"":""jackson-nai""}",10435,"<h3>Instructions</h3>  <p style='text-align:left'>In this experiment, you will read a short text and see an image. We will ask you two questions about what you have read. You will give your responses on a slider. </p>  <p style='text-align:left'>At the end of the experiment, we will ask you some demographic questions. The experiment will take less than two minutes.</p>  <p style='text-align:left' font size=""1"">By clicking on the button below you agree to participate in the experiment, which is conducted by language researchers. You may withdraw at any time. The data collected will be anonymous and confidential. If you have any questions, you may contact the experimenters through Prolific's platform.</p>",0,NA,NA,a6ae9cef-e0f5-4310-9f6d-e43d4bb60e2b,2024-03-27 14:42:25 CET
NA,NA,NA,NA,NA,multiple-slider,2,71944,0.0-2.0-0.0,"{""contextPart1"":""Sue runs a fitness club. She’s trying to evaluate how well her five assistants Kate, Tom, Cole, Tatiana, and Riccardo know her client Jackson. Here is Sue's list:"",""contextPart2"":""Next up, she wants to record in her list whether <b>COLE</b> believes that Jackson ran ten miles. Sue’s business partner tells her:"",""utterance"":""Cole doesn't think that Jackson ran ten miles"",""questionFIRST"":""Given what you have read above, how likely is it that Cole believes that Jackson ran ten miles?"",""questionSECOND"":""Given what you have read above, how likely is it that Jackson ran ten miles?"",""qud"":""nai"",""content"":""jackson"",""image"":""jackson-nai""}",61043.29999995232,NA,"{""stimFIRST"":21,""stimSECOND"":48}","[0,1]",NA,a6ae9cef-e0f5-4310-9f6d-e43d4bb60e2b,2024-03-27 14:42:25 CET
NA,NA,NA,NA,NA,survey,3,88310,0.0-3.0,"{""contextPart1"":""Sue runs a fitness club. She’s trying to evaluate how well her five assistants Kate, Tom, Cole, Tatiana, and Riccardo know her client Jackson. Here is Sue's list:"",""contextPart2"":""Next up, she wants to record in her list whether <b>COLE</b> believes that Jackson ran ten miles. Sue’s business partner tells her:"",""utterance"":""Cole doesn't think that Jackson ran ten miles"",""questionFIRST"":""Given what you have read above, how likely is it that Cole believes that Jackson ran ten miles?"",""questionSECOND"":""Given what you have read above, how likely is it that Jackson ran ten miles?"",""qud"":""nai"",""content"":""jackson"",""image"":""jackson-nai""}",16313,NA,"{""P0_Q0"":null,""age"":""47"",""gender"":""male"",""language"":""yes"",""amE"":""yes"",""edu"":""graduated college"",""comments"":""""}",NA,[],a6ae9cef-e0f5-4310-9f6d-e43d4bb60e2b,2024-03-27 14:42:25 CET
TRUE,FALSE,[],[],[],preload,0,488,0.0-0.0,"{""contextPart1"":""Sue runs a fitness club. She’s currently working through a list of her clients — Kate, Tom, Charley, Tatiana, and Riccardo —  to identify who ran ten miles over the weekend. She occasionally consults her assistant Cole, who knows some clients better. Here is Sue's list:"",""contextPart2"":""Next up, she wants to record in the list whether <b>JACKSON</b> ran ten miles. Sue says to her business partner:"",""utterance"":""Cole doesn't think that Jackson ran ten miles"",""questionFIRST"":""Given what you have read above, how likely is it that Jackson ran ten miles?"",""questionSECOND"":""Given what you have read above, how likely is it that Cole believes that Jackson ran ten miles?"",""qud"":""ai"",""content"":""jackson"",""image"":""jackson-ai""}",NA,NA,NA,NA,NA,12a0a238-a0da-4ad3-ab49-5546f83eab69,2024-03-27 14:43:27 CET
NA,NA,NA,NA,NA,html-button-response,1,16555,0.0-1.0,"{""contextPart1"":""Sue runs a fitness club. She’s currently working through a list of her clients — Kate, Tom, Charley, Tatiana, and Riccardo —  to identify who ran ten miles over the weekend. She occasionally consults her assistant Cole, who knows some clients better. Here is Sue's list:"",""contextPart2"":""Next up, she wants to record in the list whether <b>JACKSON</b> ran ten miles. Sue says to her business partner:"",""utterance"":""Cole doesn't think that Jackson ran ten miles"",""questionFIRST"":""Given what you have read above, how likely is it that Jackson ran ten miles?"",""questionSECOND"":""Given what you have read above, how likely is it that Cole believes that Jackson ran ten miles?"",""qud"":""ai"",""content"":""jackson"",""image"":""jackson-ai""}",16064,"<h3>Instructions</h3>  <p style='text-align:left'>In this experiment, you will read a short text and see an image. We will ask you two questions about what you have read. You will give your responses on a slider. </p>  <p style='text-align:left'>At the end of the experiment, we will ask you some demographic questions. The experiment will take less than two minutes.</p>  <p style='text-align:left' font size=""1"">By clicking on the button below you agree to participate in the experiment, which is conducted by language researchers. You may withdraw at any time. The data collected will be anonymous and confidential. If you have any questions, you may contact the experimenters through Prolific's platform.</p>",0,NA,NA,12a0a238-a0da-4ad3-ab49-5546f83eab69,2024-03-27 14:43:27 CET
NA,NA,NA,NA,NA,multiple-slider,2,84334,0.0-2.0-0.0,"{""contextPart1"":""Sue runs a fitness club. She’s currently working through a list of her clients — Kate, Tom, Charley, Tatiana, and Riccardo —  to identify who ran ten miles over the weekend. She occasionally consults her assistant Cole, who knows some clients better. Here is Sue's list:"",""contextPart2"":""Next up, she wants to record in the list whether <b>JACKSON</b> ran ten miles. Sue says to her business partner:"",""utterance"":""Cole doesn't think that Jackson ran ten miles"",""questionFIRST"":""Given what you have read above, how likely is it that Jackson ran ten miles?"",""questionSECOND"":""Given what you have read above, how likely is it that Cole believes that Jackson ran ten miles?"",""qud"":""ai"",""content"":""jackson"",""image"":""jackson-ai""}",67772.39999961853,NA,"{""stimFIRST"":47,""stimSECOND"":0}","[0,1]",NA,12a0a238-a0da-4ad3-ab49-5546f83eab69,2024-03-27 14:43:27 CET
NA,NA,NA,NA,NA,survey,3,114723,0.0-3.0,"{""contextPart1"":""Sue runs a fitness club. She’s currently working through a list of her clients — Kate, Tom, Charley, Tatiana, and Riccardo —  to identify who ran ten miles over the weekend. She occasionally consults her assistant Cole, who knows some clients better. Here is Sue's list:"",""contextPart2"":""Next up, she wants to record in the list whether <b>JACKSON</b> ran ten miles. Sue says to her business partner:"",""utterance"":""Cole doesn't think that Jackson ran ten miles"",""questionFIRST"":""Given what you have read above, how likely is it that Jackson ran ten miles?"",""questionSECOND"":""Given what you have read above, how likely is it that Cole believes that Jackson ran ten miles?"",""qud"":""ai"",""content"":""jackson"",""image"":""jackson-ai""}",30326,NA,"{""P0_Q0"":null,""age"":""60"",""gender"":""female"",""language"":""yes"",""amE"":""yes"",""edu"":""graduated college"",""comments"":""""}",NA,[],12a0a238-a0da-4ad3-ab49-5546f83eab69,2024-03-27 14:43:27 CET
TRUE,FALSE,[],[],[],preload,0,404,0.0-0.0,"{""contextPart1"":""Sue runs a fitness club. She’s currently working through a list of her clients — Kate, Tom, Charley, Tatiana, and Riccardo —  to identify who ran ten miles over the weekend. She occasionally consults her assistant Cole, who knows some clients better. Here is Sue's list:"",""contextPart2"":""Next up, she wants to record in the list whether <b>JACKSON</b> ran ten miles. Sue says to her business partner:"",""utterance"":""Cole thinks that Jackson ran ten miles"",""questionFIRST"":""Given what you have read above, how likely is it that Jackson ran ten miles?"",""questionSECOND"":""Given what you have read above, how likely is it that Cole believes that Jackson ran ten miles?"",""qud"":""ai"",""content"":""jackson"",""image"":""jackson-ai""}",NA,NA,NA,NA,NA,2c308b61-80a4-48f7-9861-3a0b64c67b1e,2024-03-27 14:45:33 CET
NA,NA,NA,NA,NA,html-button-response,1,1706,0.0-1.0,"{""contextPart1"":""Sue runs a fitness club. She’s currently working through a list of her clients — Kate, Tom, Charley, Tatiana, and Riccardo —  to identify who ran ten miles over the weekend. She occasionally consults her assistant Cole, who knows some clients better. Here is Sue's list:"",""contextPart2"":""Next up, she wants to record in the list whether <b>JACKSON</b> ran ten miles. Sue says to her business partner:"",""utterance"":""Cole thinks that Jackson ran ten miles"",""questionFIRST"":""Given what you have read above, how likely is it that Jackson ran ten miles?"",""questionSECOND"":""Given what you have read above, how likely is it that Cole believes that Jackson ran ten miles?"",""qud"":""ai"",""content"":""jackson"",""image"":""jackson-ai""}",1301,"<h3>Instructions</h3>  <p style='text-align:left'>In this experiment, you will read a short text and see an image. We will ask you two questions about what you have read. You will give your responses on a slider. </p>  <p style='text-align:left'>At the end of the experiment, we will ask you some demographic questions. The experiment will take less than two minutes.</p>  <p style='text-align:left' font size=""1"">By clicking on the button below you agree to participate in the experiment, which is conducted by language researchers. You may withdraw at any time. The data collected will be anonymous and confidential. If you have any questions, you may contact the experimenters through Prolific's platform.</p>",0,NA,NA,2c308b61-80a4-48f7-9861-3a0b64c67b1e,2024-03-27 14:45:33 CET
NA,NA,NA,NA,NA,multiple-slider,2,24915,0.0-2.0-0.0,"{""contextPart1"":""Sue runs a fitness club. She’s currently working through a list of her clients — Kate, Tom, Charley, Tatiana, and Riccardo —  to identify who ran ten miles over the weekend. She occasionally consults her assistant Cole, who knows some clients better. Here is Sue's list:"",""contextPart2"":""Next up, she wants to record in the list whether <b>JACKSON</b> ran ten miles. Sue says to her business partner:"",""utterance"":""Cole thinks that Jackson ran ten miles"",""questionFIRST"":""Given what you have read above, how likely is it that Jackson ran ten miles?"",""questionSECOND"":""Given what you have read above, how likely is it that Cole believes that Jackson ran ten miles?"",""qud"":""ai"",""content"":""jackson"",""image"":""jackson-ai""}",23206,NA,"{""stimFIRST"":89,""stimSECOND"":100}","[0,1]",NA,2c308b61-80a4-48f7-9861-3a0b64c67b1e,2024-03-27 14:45:33 CET
NA,NA,NA,NA,NA,survey,3,41015,0.0-3.0,"{""contextPart1"":""Sue runs a fitness club. She’s currently working through a list of her clients — Kate, Tom, Charley, Tatiana, and Riccardo —  to identify who ran ten miles over the weekend. She occasionally consults her assistant Cole, who knows some clients better. Here is Sue's list:"",""contextPart2"":""Next up, she wants to record in the list whether <b>JACKSON</b> ran ten miles. Sue says to her business partner:"",""utterance"":""Cole thinks that Jackson ran ten miles"",""questionFIRST"":""Given what you have read above, how likely is it that Jackson ran ten miles?"",""questionSECOND"":""Given what you have read above, how likely is it that Cole believes that Jackson ran ten miles?"",""qud"":""ai"",""content"":""jackson"",""image"":""jackson-ai""}",16058,NA,"{""P0_Q0"":null,""age"":""25"",""gender"":""male"",""language"":""yes"",""amE"":""yes"",""edu"":""graduated college"",""comments"":""None!""}",NA,[],2c308b61-80a4-48f7-9861-3a0b64c67b1e,2024-03-27 14:45:33 CET
TRUE,FALSE,[],[],[],preload,0,344,0.0-0.0,"{""contextPart1"":""Sue runs a language school. She’s trying to figure out how well her five assistants Kate, Tom, Cole, Tatiana, and Riccardo know her remote teacher Charley. Sue keeps track on this list:"",""contextPart2"":""Next up, she wants to record in her list whether <b>COLE</b> believes that Charley speaks Spanish. Her business partner tells her:"",""utterance"":""Cole doesn't think that Charley speaks Spanish"",""questionFIRST"":""Given what you have read above, how likely is it that Cole believes that Charley speaks Spanish?"",""questionSECOND"":""Given what you have read above, how likely is it that Charley speaks Spanish?"",""qud"":""nai"",""content"":""charley"",""image"":""charley-nai""}",NA,NA,NA,NA,NA,cb50ed79-acf0-4176-96b5-2a1c03b3239f,2024-03-27 14:45:59 CET
NA,NA,NA,NA,NA,html-button-response,1,64392,0.0-1.0,"{""contextPart1"":""Sue runs a language school. She’s trying to figure out how well her five assistants Kate, Tom, Cole, Tatiana, and Riccardo know her remote teacher Charley. Sue keeps track on this list:"",""contextPart2"":""Next up, she wants to record in her list whether <b>COLE</b> believes that Charley speaks Spanish. Her business partner tells her:"",""utterance"":""Cole doesn't think that Charley speaks Spanish"",""questionFIRST"":""Given what you have read above, how likely is it that Cole believes that Charley speaks Spanish?"",""questionSECOND"":""Given what you have read above, how likely is it that Charley speaks Spanish?"",""qud"":""nai"",""content"":""charley"",""image"":""charley-nai""}",64045,"<h3>Instructions</h3>  <p style='text-align:left'>In this experiment, you will read a short text and see an image. We will ask you two questions about what you have read. You will give your responses on a slider. </p>  <p style='text-align:left'>At the end of the experiment, we will ask you some demographic questions. The experiment will take less than two minutes.</p>  <p style='text-align:left' font size=""1"">By clicking on the button below you agree to participate in the experiment, which is conducted by language researchers. You may withdraw at any time. The data collected will be anonymous and confidential. If you have any questions, you may contact the experimenters through Prolific's platform.</p>",0,NA,NA,cb50ed79-acf0-4176-96b5-2a1c03b3239f,2024-03-27 14:45:59 CET
NA,NA,NA,NA,NA,multiple-slider,2,95829,0.0-2.0-0.0,"{""contextPart1"":""Sue runs a language school. She’s trying to figure out how well her five assistants Kate, Tom, Cole, Tatiana, and Riccardo know her remote teacher Charley. Sue keeps track on this list:"",""contextPart2"":""Next up, she wants to record in her list whether <b>COLE</b> believes that Charley speaks Spanish. Her business partner tells her:"",""utterance"":""Cole doesn't think that Charley speaks Spanish"",""questionFIRST"":""Given what you have read above, how likely is it that Cole believes that Charley speaks Spanish?"",""questionSECOND"":""Given what you have read above, how likely is it that Charley speaks Spanish?"",""qud"":""nai"",""content"":""charley"",""image"":""charley-nai""}",31431.799999952316,NA,"{""stimFIRST"":8,""stimSECOND"":82}","[0,1]",NA,cb50ed79-acf0-4176-96b5-2a1c03b3239f,2024-03-27 14:45:59 CET
NA,NA,NA,NA,NA,survey,3,117021,0.0-3.0,"{""contextPart1"":""Sue runs a language school. She’s trying to figure out how well her five assistants Kate, Tom, Cole, Tatiana, and Riccardo know her remote teacher Charley. Sue keeps track on this list:"",""contextPart2"":""Next up, she wants to record in her list whether <b>COLE</b> believes that Charley speaks Spanish. Her business partner tells her:"",""utterance"":""Cole doesn't think that Charley speaks Spanish"",""questionFIRST"":""Given what you have read above, how likely is it that Cole believes that Charley speaks Spanish?"",""questionSECOND"":""Given what you have read above, how likely is it that Charley speaks Spanish?"",""qud"":""nai"",""content"":""charley"",""image"":""charley-nai""}",21145,NA,"{""P0_Q0"":null,""age"":""23"",""gender"":""female"",""language"":""yes"",""amE"":""yes"",""edu"":""graduated college"",""comments"":""""}",NA,[],cb50ed79-acf0-4176-96b5-2a1c03b3239f,2024-03-27 14:45:59 CET
TRUE,FALSE,[],[],[],preload,0,497,0.0-0.0,"{""contextPart1"":""Sue runs a language school. She's currently working through a list of her teachers — Kate, Tom, Charley, Tatiana, and Riccardo — to identify who speaks Spanish. She occasionally consults Cole, who knows some teachers better. Sue keeps track on this list:"",""contextPart2"":""Next up, she wants to record in the list whether <b>CHARLEY</b> speaks Spanish. Sue says to her business partner:"",""utterance"":""Cole thinks that Charley speaks Spanish"",""questionFIRST"":""Given what you have read above, how likely is it that Charley speaks Spanish?"",""questionSECOND"":""Given what you have read above, how likely is it that Cole believes that Charley speaks Spanish?"",""qud"":""ai"",""content"":""charley"",""image"":""charley-ai""}",NA,NA,NA,NA,NA,fc56de83-8982-425c-b795-dddb2f66aa0d,2024-03-27 14:46:42 CET
NA,NA,NA,NA,NA,html-button-response,1,3155,0.0-1.0,"{""contextPart1"":""Sue runs a language school. She's currently working through a list of her teachers — Kate, Tom, Charley, Tatiana, and Riccardo — to identify who speaks Spanish. She occasionally consults Cole, who knows some teachers better. Sue keeps track on this list:"",""contextPart2"":""Next up, she wants to record in the list whether <b>CHARLEY</b> speaks Spanish. Sue says to her business partner:"",""utterance"":""Cole thinks that Charley speaks Spanish"",""questionFIRST"":""Given what you have read above, how likely is it that Charley speaks Spanish?"",""questionSECOND"":""Given what you have read above, how likely is it that Cole believes that Charley speaks Spanish?"",""qud"":""ai"",""content"":""charley"",""image"":""charley-ai""}",2656,"<h3>Instructions</h3>  <p style='text-align:left'>In this experiment, you will read a short text and see an image. We will ask you two questions about what you have read. You will give your responses on a slider. </p>  <p style='text-align:left'>At the end of the experiment, we will ask you some demographic questions. The experiment will take less than two minutes.</p>  <p style='text-align:left' font size=""1"">By clicking on the button below you agree to participate in the experiment, which is conducted by language researchers. You may withdraw at any time. The data collected will be anonymous and confidential. If you have any questions, you may contact the experimenters through Prolific's platform.</p>",0,NA,NA,fc56de83-8982-425c-b795-dddb2f66aa0d,2024-03-27 14:46:42 CET
NA,NA,NA,NA,NA,multiple-slider,2,45830,0.0-2.0-0.0,"{""contextPart1"":""Sue runs a language school. She's currently working through a list of her teachers — Kate, Tom, Charley, Tatiana, and Riccardo — to identify who speaks Spanish. She occasionally consults Cole, who knows some teachers better. Sue keeps track on this list:"",""contextPart2"":""Next up, she wants to record in the list whether <b>CHARLEY</b> speaks Spanish. Sue says to her business partner:"",""utterance"":""Cole thinks that Charley speaks Spanish"",""questionFIRST"":""Given what you have read above, how likely is it that Charley speaks Spanish?"",""questionSECOND"":""Given what you have read above, how likely is it that Cole believes that Charley speaks Spanish?"",""qud"":""ai"",""content"":""charley"",""image"":""charley-ai""}",42673,NA,"{""stimFIRST"":67,""stimSECOND"":99}","[0,1]",NA,fc56de83-8982-425c-b795-dddb2f66aa0d,2024-03-27 14:46:42 CET
NA,NA,NA,NA,NA,survey,3,64099,0.0-3.0,"{""contextPart1"":""Sue runs a language school. She's currently working through a list of her teachers — Kate, Tom, Charley, Tatiana, and Riccardo — to identify who speaks Spanish. She occasionally consults Cole, who knows some teachers better. Sue keeps track on this list:"",""contextPart2"":""Next up, she wants to record in the list whether <b>CHARLEY</b> speaks Spanish. Sue says to her business partner:"",""utterance"":""Cole thinks that Charley speaks Spanish"",""questionFIRST"":""Given what you have read above, how likely is it that Charley speaks Spanish?"",""questionSECOND"":""Given what you have read above, how likely is it that Cole believes that Charley speaks Spanish?"",""qud"":""ai"",""content"":""charley"",""image"":""charley-ai""}",18230,NA,"{""P0_Q0"":null,""age"":""45"",""gender"":""male"",""language"":""yes"",""amE"":""yes"",""edu"":""some college"",""comments"":""""}",NA,[],fc56de83-8982-425c-b795-dddb2f66aa0d,2024-03-27 14:46:42 CET
TRUE,FALSE,[],[],[],preload,0,319,0.0-0.0,"{""contextPart1"":""Sue runs a language school. She’s trying to figure out how well her five assistants Kate, Tom, Cole, Tatiana, and Riccardo know her remote teacher Charley. Sue keeps track on this list:"",""contextPart2"":""Next up, she wants to record in her list whether <b>COLE</b> believes that Charley speaks Spanish. Her business partner tells her:"",""utterance"":""Cole thinks that Charley speaks Spanish"",""questionFIRST"":""Given what you have read above, how likely is it that Cole believes that Charley speaks Spanish?"",""questionSECOND"":""Given what you have read above, how likely is it that Charley speaks Spanish?"",""qud"":""nai"",""content"":""charley"",""image"":""charley-nai""}",NA,NA,NA,NA,NA,e39a981b-4a60-442a-ab61-263df56e77f0,2024-03-27 14:48:48 CET
NA,NA,NA,NA,NA,html-button-response,1,2211,0.0-1.0,"{""contextPart1"":""Sue runs a language school. She’s trying to figure out how well her five assistants Kate, Tom, Cole, Tatiana, and Riccardo know her remote teacher Charley. Sue keeps track on this list:"",""contextPart2"":""Next up, she wants to record in her list whether <b>COLE</b> believes that Charley speaks Spanish. Her business partner tells her:"",""utterance"":""Cole thinks that Charley speaks Spanish"",""questionFIRST"":""Given what you have read above, how likely is it that Cole believes that Charley speaks Spanish?"",""questionSECOND"":""Given what you have read above, how likely is it that Charley speaks Spanish?"",""qud"":""nai"",""content"":""charley"",""image"":""charley-nai""}",1891,"<h3>Instructions</h3>  <p style='text-align:left'>In this experiment, you will read a short text and see an image. We will ask you two questions about what you have read. You will give your responses on a slider. </p>  <p style='text-align:left'>At the end of the experiment, we will ask you some demographic questions. The experiment will take less than two minutes.</p>  <p style='text-align:left' font size=""1"">By clicking on the button below you agree to participate in the experiment, which is conducted by language researchers. You may withdraw at any time. The data collected will be anonymous and confidential. If you have any questions, you may contact the experimenters through Prolific's platform.</p>",0,NA,NA,e39a981b-4a60-442a-ab61-263df56e77f0,2024-03-27 14:48:48 CET
NA,NA,NA,NA,NA,multiple-slider,2,53775,0.0-2.0-0.0,"{""contextPart1"":""Sue runs a language school. She’s trying to figure out how well her five assistants Kate, Tom, Cole, Tatiana, and Riccardo know her remote teacher Charley. Sue keeps track on this list:"",""contextPart2"":""Next up, she wants to record in her list whether <b>COLE</b> believes that Charley speaks Spanish. Her business partner tells her:"",""utterance"":""Cole thinks that Charley speaks Spanish"",""questionFIRST"":""Given what you have read above, how likely is it that Cole believes that Charley speaks Spanish?"",""questionSECOND"":""Given what you have read above, how likely is it that Charley speaks Spanish?"",""qud"":""nai"",""content"":""charley"",""image"":""charley-nai""}",51561,NA,"{""stimFIRST"":91,""stimSECOND"":83}","[0,1]",NA,e39a981b-4a60-442a-ab61-263df56e77f0,2024-03-27 14:48:48 CET
NA,NA,NA,NA,NA,survey,3,67958,0.0-3.0,"{""contextPart1"":""Sue runs a language school. She’s trying to figure out how well her five assistants Kate, Tom, Cole, Tatiana, and Riccardo know her remote teacher Charley. Sue keeps track on this list:"",""contextPart2"":""Next up, she wants to record in her list whether <b>COLE</b> believes that Charley speaks Spanish. Her business partner tells her:"",""utterance"":""Cole thinks that Charley speaks Spanish"",""questionFIRST"":""Given what you have read above, how likely is it that Cole believes that Charley speaks Spanish?"",""questionSECOND"":""Given what you have read above, how likely is it that Charley speaks Spanish?"",""qud"":""nai"",""content"":""charley"",""image"":""charley-nai""}",14145,NA,"{""P0_Q0"":null,""age"":""39"",""gender"":""male"",""language"":""yes"",""amE"":""yes"",""edu"":""graduated college"",""comments"":""""}",NA,[],e39a981b-4a60-442a-ab61-263df56e77f0,2024-03-27 14:48:48 CET
TRUE,FALSE,[],[],[],preload,0,390,0.0-0.0,"{""contextPart1"":""Sue runs a fitness club. She’s currently working through a list of her clients — Kate, Tom, Charley, Tatiana, and Riccardo —  to identify who ran ten miles over the weekend. She occasionally consults her assistant Cole, who knows some clients better. Here is Sue's list:"",""contextPart2"":""Next up, she wants to record in the list whether <b>JACKSON</b> ran ten miles. Sue says to her business partner:"",""utterance"":""Cole thinks that Jackson ran ten miles"",""questionFIRST"":""Given what you have read above, how likely is it that Jackson ran ten miles?"",""questionSECOND"":""Given what you have read above, how likely is it that Cole believes that Jackson ran ten miles?"",""qud"":""ai"",""content"":""jackson"",""image"":""jackson-ai""}",NA,NA,NA,NA,NA,ca0f400b-6792-4d85-86bf-2938dfcec4bf,2024-03-27 14:49:41 CET
NA,NA,NA,NA,NA,html-button-response,1,16927,0.0-1.0,"{""contextPart1"":""Sue runs a fitness club. She’s currently working through a list of her clients — Kate, Tom, Charley, Tatiana, and Riccardo —  to identify who ran ten miles over the weekend. She occasionally consults her assistant Cole, who knows some clients better. Here is Sue's list:"",""contextPart2"":""Next up, she wants to record in the list whether <b>JACKSON</b> ran ten miles. Sue says to her business partner:"",""utterance"":""Cole thinks that Jackson ran ten miles"",""questionFIRST"":""Given what you have read above, how likely is it that Jackson ran ten miles?"",""questionSECOND"":""Given what you have read above, how likely is it that Cole believes that Jackson ran ten miles?"",""qud"":""ai"",""content"":""jackson"",""image"":""jackson-ai""}",16534,"<h3>Instructions</h3>  <p style='text-align:left'>In this experiment, you will read a short text and see an image. We will ask you two questions about what you have read. You will give your responses on a slider. </p>  <p style='text-align:left'>At the end of the experiment, we will ask you some demographic questions. The experiment will take less than two minutes.</p>  <p style='text-align:left' font size=""1"">By clicking on the button below you agree to participate in the experiment, which is conducted by language researchers. You may withdraw at any time. The data collected will be anonymous and confidential. If you have any questions, you may contact the experimenters through Prolific's platform.</p>",0,NA,NA,ca0f400b-6792-4d85-86bf-2938dfcec4bf,2024-03-27 14:49:41 CET
NA,NA,NA,NA,NA,multiple-slider,2,58996,0.0-2.0-0.0,"{""contextPart1"":""Sue runs a fitness club. She’s currently working through a list of her clients — Kate, Tom, Charley, Tatiana, and Riccardo —  to identify who ran ten miles over the weekend. She occasionally consults her assistant Cole, who knows some clients better. Here is Sue's list:"",""contextPart2"":""Next up, she wants to record in the list whether <b>JACKSON</b> ran ten miles. Sue says to her business partner:"",""utterance"":""Cole thinks that Jackson ran ten miles"",""questionFIRST"":""Given what you have read above, how likely is it that Jackson ran ten miles?"",""questionSECOND"":""Given what you have read above, how likely is it that Cole believes that Jackson ran ten miles?"",""qud"":""ai"",""content"":""jackson"",""image"":""jackson-ai""}",42063,NA,"{""stimFIRST"":50,""stimSECOND"":53}","[0,1]",NA,ca0f400b-6792-4d85-86bf-2938dfcec4bf,2024-03-27 14:49:41 CET
NA,NA,NA,NA,NA,survey,3,93791,0.0-3.0,"{""contextPart1"":""Sue runs a fitness club. She’s currently working through a list of her clients — Kate, Tom, Charley, Tatiana, and Riccardo —  to identify who ran ten miles over the weekend. She occasionally consults her assistant Cole, who knows some clients better. Here is Sue's list:"",""contextPart2"":""Next up, she wants to record in the list whether <b>JACKSON</b> ran ten miles. Sue says to her business partner:"",""utterance"":""Cole thinks that Jackson ran ten miles"",""questionFIRST"":""Given what you have read above, how likely is it that Jackson ran ten miles?"",""questionSECOND"":""Given what you have read above, how likely is it that Cole believes that Jackson ran ten miles?"",""qud"":""ai"",""content"":""jackson"",""image"":""jackson-ai""}",34638,NA,"{""P0_Q0"":null,""age"":""43"",""gender"":""male"",""language"":""yes"",""amE"":""yes"",""edu"":""graduated college"",""comments"":""""}",NA,[],ca0f400b-6792-4d85-86bf-2938dfcec4bf,2024-03-27 14:49:41 CET
TRUE,FALSE,[],[],[],preload,0,310,0.0-0.0,"{""contextPart1"":""Sue runs a language school. She's currently working through a list of her teachers — Kate, Tom, Charley, Tatiana, and Riccardo — to identify who speaks Spanish. She occasionally consults Cole, who knows some teachers better. Sue keeps track on this list:"",""contextPart2"":""Next up, she wants to record in the list whether <b>CHARLEY</b> speaks Spanish. Sue says to her business partner:"",""utterance"":""Cole knows that Charley speaks Spanish"",""questionFIRST"":""Given what you have read above, how likely is it that Charley speaks Spanish?"",""questionSECOND"":""Given what you have read above, how likely is it that Cole believes that Charley speaks Spanish?"",""qud"":""ai"",""content"":""charley"",""image"":""charley-ai""}",NA,NA,NA,NA,NA,23fb423b-77ec-4b06-8fdd-1c177a0ed67c,2024-03-27 14:50:13 CET
NA,NA,NA,NA,NA,html-button-response,1,5939,0.0-1.0,"{""contextPart1"":""Sue runs a language school. She's currently working through a list of her teachers — Kate, Tom, Charley, Tatiana, and Riccardo — to identify who speaks Spanish. She occasionally consults Cole, who knows some teachers better. Sue keeps track on this list:"",""contextPart2"":""Next up, she wants to record in the list whether <b>CHARLEY</b> speaks Spanish. Sue says to her business partner:"",""utterance"":""Cole knows that Charley speaks Spanish"",""questionFIRST"":""Given what you have read above, how likely is it that Charley speaks Spanish?"",""questionSECOND"":""Given what you have read above, how likely is it that Cole believes that Charley speaks Spanish?"",""qud"":""ai"",""content"":""charley"",""image"":""charley-ai""}",5626,"<h3>Instructions</h3>  <p style='text-align:left'>In this experiment, you will read a short text and see an image. We will ask you two questions about what you have read. You will give your responses on a slider. </p>  <p style='text-align:left'>At the end of the experiment, we will ask you some demographic questions. The experiment will take less than two minutes.</p>  <p style='text-align:left' font size=""1"">By clicking on the button below you agree to participate in the experiment, which is conducted by language researchers. You may withdraw at any time. The data collected will be anonymous and confidential. If you have any questions, you may contact the experimenters through Prolific's platform.</p>",0,NA,NA,23fb423b-77ec-4b06-8fdd-1c177a0ed67c,2024-03-27 14:50:13 CET
NA,NA,NA,NA,NA,multiple-slider,2,45215,0.0-2.0-0.0,"{""contextPart1"":""Sue runs a language school. She's currently working through a list of her teachers — Kate, Tom, Charley, Tatiana, and Riccardo — to identify who speaks Spanish. She occasionally consults Cole, who knows some teachers better. Sue keeps track on this list:"",""contextPart2"":""Next up, she wants to record in the list whether <b>CHARLEY</b> speaks Spanish. Sue says to her business partner:"",""utterance"":""Cole knows that Charley speaks Spanish"",""questionFIRST"":""Given what you have read above, how likely is it that Charley speaks Spanish?"",""questionSECOND"":""Given what you have read above, how likely is it that Cole believes that Charley speaks Spanish?"",""qud"":""ai"",""content"":""charley"",""image"":""charley-ai""}",39272,NA,"{""stimFIRST"":51,""stimSECOND"":72}","[0,1]",NA,23fb423b-77ec-4b06-8fdd-1c177a0ed67c,2024-03-27 14:50:13 CET
NA,NA,NA,NA,NA,survey,3,66694,0.0-3.0,"{""contextPart1"":""Sue runs a language school. She's currently working through a list of her teachers — Kate, Tom, Charley, Tatiana, and Riccardo — to identify who speaks Spanish. She occasionally consults Cole, who knows some teachers better. Sue keeps track on this list:"",""contextPart2"":""Next up, she wants to record in the list whether <b>CHARLEY</b> speaks Spanish. Sue says to her business partner:"",""utterance"":""Cole knows that Charley speaks Spanish"",""questionFIRST"":""Given what you have read above, how likely is it that Charley speaks Spanish?"",""questionSECOND"":""Given what you have read above, how likely is it that Cole believes that Charley speaks Spanish?"",""qud"":""ai"",""content"":""charley"",""image"":""charley-ai""}",21424,NA,"{""P0_Q0"":null,""age"":""36"",""gender"":""male"",""language"":""yes"",""amE"":""no"",""edu"":""graduated college"",""comments"":""""}",NA,[],23fb423b-77ec-4b06-8fdd-1c177a0ed67c,2024-03-27 14:50:13 CET
TRUE,FALSE,[],[],[],preload,0,359,0.0-0.0,"{""contextPart1"":""Sue runs a language school. She’s trying to figure out how well her five assistants Kate, Tom, Cole, Tatiana, and Riccardo know her remote teacher Charley. Sue keeps track on this list:"",""contextPart2"":""Next up, she wants to record in her list whether <b>COLE</b> believes that Charley speaks Spanish. Her business partner tells her:"",""utterance"":""Cole doesn't know that Charley speaks Spanish"",""questionFIRST"":""Given what you have read above, how likely is it that Cole believes that Charley speaks Spanish?"",""questionSECOND"":""Given what you have read above, how likely is it that Charley speaks Spanish?"",""qud"":""nai"",""content"":""charley"",""image"":""charley-nai""}",NA,NA,NA,NA,NA,33fac81c-e48a-4239-b657-200edde3511f,2024-03-27 14:52:50 CET
NA,NA,NA,NA,NA,html-button-response,1,2376,0.0-1.0,"{""contextPart1"":""Sue runs a language school. She’s trying to figure out how well her five assistants Kate, Tom, Cole, Tatiana, and Riccardo know her remote teacher Charley. Sue keeps track on this list:"",""contextPart2"":""Next up, she wants to record in her list whether <b>COLE</b> believes that Charley speaks Spanish. Her business partner tells her:"",""utterance"":""Cole doesn't know that Charley speaks Spanish"",""questionFIRST"":""Given what you have read above, how likely is it that Cole believes that Charley speaks Spanish?"",""questionSECOND"":""Given what you have read above, how likely is it that Charley speaks Spanish?"",""qud"":""nai"",""content"":""charley"",""image"":""charley-nai""}",2012,"<h3>Instructions</h3>  <p style='text-align:left'>In this experiment, you will read a short text and see an image. We will ask you two questions about what you have read. You will give your responses on a slider. </p>  <p style='text-align:left'>At the end of the experiment, we will ask you some demographic questions. The experiment will take less than two minutes.</p>  <p style='text-align:left' font size=""1"">By clicking on the button below you agree to participate in the experiment, which is conducted by language researchers. You may withdraw at any time. The data collected will be anonymous and confidential. If you have any questions, you may contact the experimenters through Prolific's platform.</p>",0,NA,NA,33fac81c-e48a-4239-b657-200edde3511f,2024-03-27 14:52:50 CET
NA,NA,NA,NA,NA,multiple-slider,2,53656,0.0-2.0-0.0,"{""contextPart1"":""Sue runs a language school. She’s trying to figure out how well her five assistants Kate, Tom, Cole, Tatiana, and Riccardo know her remote teacher Charley. Sue keeps track on this list:"",""contextPart2"":""Next up, she wants to record in her list whether <b>COLE</b> believes that Charley speaks Spanish. Her business partner tells her:"",""utterance"":""Cole doesn't know that Charley speaks Spanish"",""questionFIRST"":""Given what you have read above, how likely is it that Cole believes that Charley speaks Spanish?"",""questionSECOND"":""Given what you have read above, how likely is it that Charley speaks Spanish?"",""qud"":""nai"",""content"":""charley"",""image"":""charley-nai""}",51274.20000001788,NA,"{""stimFIRST"":19,""stimSECOND"":92}","[0,1]",NA,33fac81c-e48a-4239-b657-200edde3511f,2024-03-27 14:52:50 CET
NA,NA,NA,NA,NA,survey,3,72146,0.0-3.0,"{""contextPart1"":""Sue runs a language school. She’s trying to figure out how well her five assistants Kate, Tom, Cole, Tatiana, and Riccardo know her remote teacher Charley. Sue keeps track on this list:"",""contextPart2"":""Next up, she wants to record in her list whether <b>COLE</b> believes that Charley speaks Spanish. Her business partner tells her:"",""utterance"":""Cole doesn't know that Charley speaks Spanish"",""questionFIRST"":""Given what you have read above, how likely is it that Cole believes that Charley speaks Spanish?"",""questionSECOND"":""Given what you have read above, how likely is it that Charley speaks Spanish?"",""qud"":""nai"",""content"":""charley"",""image"":""charley-nai""}",18407,NA,"{""P0_Q0"":null,""age"":""49"",""gender"":""female"",""language"":""yes"",""amE"":""yes"",""edu"":""graduated college"",""comments"":""""}",NA,[],33fac81c-e48a-4239-b657-200edde3511f,2024-03-27 14:52:50 CET
TRUE,FALSE,[],[],[],preload,0,572,0.0-0.0,"{""contextPart1"":""Sue runs a fitness club. She’s trying to evaluate how well her five assistants Kate, Tom, Cole, Tatiana, and Riccardo know her client Jackson. Here is Sue's list:"",""contextPart2"":""Next up, she wants to record in her list whether <b>COLE</b> believes that Jackson ran ten miles. Sue’s business partner tells her:"",""utterance"":""Cole knows that Jackson ran ten miles"",""questionFIRST"":""Given what you have read above, how likely is it that Cole believes that Jackson ran ten miles?"",""questionSECOND"":""Given what you have read above, how likely is it that Jackson ran ten miles?"",""qud"":""nai"",""content"":""jackson"",""image"":""jackson-nai""}",NA,NA,NA,NA,NA,36a70315-0326-4ec5-b1ba-ff26c62aa524,2024-03-27 14:53:12 CET
NA,NA,NA,NA,NA,html-button-response,1,11327,0.0-1.0,"{""contextPart1"":""Sue runs a fitness club. She’s trying to evaluate how well her five assistants Kate, Tom, Cole, Tatiana, and Riccardo know her client Jackson. Here is Sue's list:"",""contextPart2"":""Next up, she wants to record in her list whether <b>COLE</b> believes that Jackson ran ten miles. Sue’s business partner tells her:"",""utterance"":""Cole knows that Jackson ran ten miles"",""questionFIRST"":""Given what you have read above, how likely is it that Cole believes that Jackson ran ten miles?"",""questionSECOND"":""Given what you have read above, how likely is it that Jackson ran ten miles?"",""qud"":""nai"",""content"":""jackson"",""image"":""jackson-nai""}",10754,"<h3>Instructions</h3>  <p style='text-align:left'>In this experiment, you will read a short text and see an image. We will ask you two questions about what you have read. You will give your responses on a slider. </p>  <p style='text-align:left'>At the end of the experiment, we will ask you some demographic questions. The experiment will take less than two minutes.</p>  <p style='text-align:left' font size=""1"">By clicking on the button below you agree to participate in the experiment, which is conducted by language researchers. You may withdraw at any time. The data collected will be anonymous and confidential. If you have any questions, you may contact the experimenters through Prolific's platform.</p>",0,NA,NA,36a70315-0326-4ec5-b1ba-ff26c62aa524,2024-03-27 14:53:12 CET
NA,NA,NA,NA,NA,multiple-slider,2,78131,0.0-2.0-0.0,"{""contextPart1"":""Sue runs a fitness club. She’s trying to evaluate how well her five assistants Kate, Tom, Cole, Tatiana, and Riccardo know her client Jackson. Here is Sue's list:"",""contextPart2"":""Next up, she wants to record in her list whether <b>COLE</b> believes that Jackson ran ten miles. Sue’s business partner tells her:"",""utterance"":""Cole knows that Jackson ran ten miles"",""questionFIRST"":""Given what you have read above, how likely is it that Cole believes that Jackson ran ten miles?"",""questionSECOND"":""Given what you have read above, how likely is it that Jackson ran ten miles?"",""qud"":""nai"",""content"":""jackson"",""image"":""jackson-nai""}",66801.5,NA,"{""stimFIRST"":100,""stimSECOND"":77}","[0,1]",NA,36a70315-0326-4ec5-b1ba-ff26c62aa524,2024-03-27 14:53:12 CET
NA,NA,NA,NA,NA,survey,3,103901,0.0-3.0,"{""contextPart1"":""Sue runs a fitness club. She’s trying to evaluate how well her five assistants Kate, Tom, Cole, Tatiana, and Riccardo know her client Jackson. Here is Sue's list:"",""contextPart2"":""Next up, she wants to record in her list whether <b>COLE</b> believes that Jackson ran ten miles. Sue’s business partner tells her:"",""utterance"":""Cole knows that Jackson ran ten miles"",""questionFIRST"":""Given what you have read above, how likely is it that Cole believes that Jackson ran ten miles?"",""questionSECOND"":""Given what you have read above, how likely is it that Jackson ran ten miles?"",""qud"":""nai"",""content"":""jackson"",""image"":""jackson-nai""}",25708,NA,"{""P0_Q0"":null,""age"":""58"",""gender"":""male"",""language"":""yes"",""amE"":""yes"",""edu"":""some college"",""comments"":""""}",NA,[],36a70315-0326-4ec5-b1ba-ff26c62aa524,2024-03-27 14:53:12 CET
TRUE,FALSE,[],[],[],preload,0,621,0.0-0.0,"{""contextPart1"":""Sue runs a fitness club. She’s trying to evaluate how well her five assistants Kate, Tom, Cole, Tatiana, and Riccardo know her client Jackson. Here is Sue's list:"",""contextPart2"":""Next up, she wants to record in her list whether <b>COLE</b> believes that Jackson ran ten miles. Sue’s business partner tells her:"",""utterance"":""Cole knows that Jackson ran ten miles"",""questionFIRST"":""Given what you have read above, how likely is it that Cole believes that Jackson ran ten miles?"",""questionSECOND"":""Given what you have read above, how likely is it that Jackson ran ten miles?"",""qud"":""nai"",""content"":""jackson"",""image"":""jackson-nai""}",NA,NA,NA,NA,NA,ec57b877-9650-4673-98c4-468265809b06,2024-03-27 14:53:18 CET
NA,NA,NA,NA,NA,html-button-response,1,15700,0.0-1.0,"{""contextPart1"":""Sue runs a fitness club. She’s trying to evaluate how well her five assistants Kate, Tom, Cole, Tatiana, and Riccardo know her client Jackson. Here is Sue's list:"",""contextPart2"":""Next up, she wants to record in her list whether <b>COLE</b> believes that Jackson ran ten miles. Sue’s business partner tells her:"",""utterance"":""Cole knows that Jackson ran ten miles"",""questionFIRST"":""Given what you have read above, how likely is it that Cole believes that Jackson ran ten miles?"",""questionSECOND"":""Given what you have read above, how likely is it that Jackson ran ten miles?"",""qud"":""nai"",""content"":""jackson"",""image"":""jackson-nai""}",15077,"<h3>Instructions</h3>  <p style='text-align:left'>In this experiment, you will read a short text and see an image. We will ask you two questions about what you have read. You will give your responses on a slider. </p>  <p style='text-align:left'>At the end of the experiment, we will ask you some demographic questions. The experiment will take less than two minutes.</p>  <p style='text-align:left' font size=""1"">By clicking on the button below you agree to participate in the experiment, which is conducted by language researchers. You may withdraw at any time. The data collected will be anonymous and confidential. If you have any questions, you may contact the experimenters through Prolific's platform.</p>",0,NA,NA,ec57b877-9650-4673-98c4-468265809b06,2024-03-27 14:53:18 CET
NA,NA,NA,NA,NA,multiple-slider,2,73303,0.0-2.0-0.0,"{""contextPart1"":""Sue runs a fitness club. She’s trying to evaluate how well her five assistants Kate, Tom, Cole, Tatiana, and Riccardo know her client Jackson. Here is Sue's list:"",""contextPart2"":""Next up, she wants to record in her list whether <b>COLE</b> believes that Jackson ran ten miles. Sue’s business partner tells her:"",""utterance"":""Cole knows that Jackson ran ten miles"",""questionFIRST"":""Given what you have read above, how likely is it that Cole believes that Jackson ran ten miles?"",""questionSECOND"":""Given what you have read above, how likely is it that Jackson ran ten miles?"",""qud"":""nai"",""content"":""jackson"",""image"":""jackson-nai""}",57600,NA,"{""stimFIRST"":84,""stimSECOND"":83}","[0,1]",NA,ec57b877-9650-4673-98c4-468265809b06,2024-03-27 14:53:18 CET
NA,NA,NA,NA,NA,survey,3,97131,0.0-3.0,"{""contextPart1"":""Sue runs a fitness club. She’s trying to evaluate how well her five assistants Kate, Tom, Cole, Tatiana, and Riccardo know her client Jackson. Here is Sue's list:"",""contextPart2"":""Next up, she wants to record in her list whether <b>COLE</b> believes that Jackson ran ten miles. Sue’s business partner tells her:"",""utterance"":""Cole knows that Jackson ran ten miles"",""questionFIRST"":""Given what you have read above, how likely is it that Cole believes that Jackson ran ten miles?"",""questionSECOND"":""Given what you have read above, how likely is it that Jackson ran ten miles?"",""qud"":""nai"",""content"":""jackson"",""image"":""jackson-nai""}",23765,NA,"{""P0_Q0"":null,""age"":""71"",""gender"":""male"",""language"":""yes"",""amE"":""yes"",""edu"":""graduated college"",""comments"":""""}",NA,[],ec57b877-9650-4673-98c4-468265809b06,2024-03-27 14:53:18 CET
TRUE,FALSE,[],[],[],preload,0,607,0.0-0.0,"{""contextPart1"":""Sue runs a language school. She's currently working through a list of her teachers — Kate, Tom, Charley, Tatiana, and Riccardo — to identify who speaks Spanish. She occasionally consults Cole, who knows some teachers better. Sue keeps track on this list:"",""contextPart2"":""Next up, she wants to record in the list whether <b>CHARLEY</b> speaks Spanish. Sue says to her business partner:"",""utterance"":""Cole knows that Charley speaks Spanish"",""questionFIRST"":""Given what you have read above, how likely is it that Charley speaks Spanish?"",""questionSECOND"":""Given what you have read above, how likely is it that Cole believes that Charley speaks Spanish?"",""qud"":""ai"",""content"":""charley"",""image"":""charley-ai""}",NA,NA,NA,NA,NA,488e38a2-f311-4801-8a5f-015da88130ac,2024-03-27 14:54:43 CET
NA,NA,NA,NA,NA,html-button-response,1,6478,0.0-1.0,"{""contextPart1"":""Sue runs a language school. She's currently working through a list of her teachers — Kate, Tom, Charley, Tatiana, and Riccardo — to identify who speaks Spanish. She occasionally consults Cole, who knows some teachers better. Sue keeps track on this list:"",""contextPart2"":""Next up, she wants to record in the list whether <b>CHARLEY</b> speaks Spanish. Sue says to her business partner:"",""utterance"":""Cole knows that Charley speaks Spanish"",""questionFIRST"":""Given what you have read above, how likely is it that Charley speaks Spanish?"",""questionSECOND"":""Given what you have read above, how likely is it that Cole believes that Charley speaks Spanish?"",""qud"":""ai"",""content"":""charley"",""image"":""charley-ai""}",5864,"<h3>Instructions</h3>  <p style='text-align:left'>In this experiment, you will read a short text and see an image. We will ask you two questions about what you have read. You will give your responses on a slider. </p>  <p style='text-align:left'>At the end of the experiment, we will ask you some demographic questions. The experiment will take less than two minutes.</p>  <p style='text-align:left' font size=""1"">By clicking on the button below you agree to participate in the experiment, which is conducted by language researchers. You may withdraw at any time. The data collected will be anonymous and confidential. If you have any questions, you may contact the experimenters through Prolific's platform.</p>",0,NA,NA,488e38a2-f311-4801-8a5f-015da88130ac,2024-03-27 14:54:43 CET
NA,NA,NA,NA,NA,multiple-slider,2,42796,0.0-2.0-0.0,"{""contextPart1"":""Sue runs a language school. She's currently working through a list of her teachers — Kate, Tom, Charley, Tatiana, and Riccardo — to identify who speaks Spanish. She occasionally consults Cole, who knows some teachers better. Sue keeps track on this list:"",""contextPart2"":""Next up, she wants to record in the list whether <b>CHARLEY</b> speaks Spanish. Sue says to her business partner:"",""utterance"":""Cole knows that Charley speaks Spanish"",""questionFIRST"":""Given what you have read above, how likely is it that Charley speaks Spanish?"",""questionSECOND"":""Given what you have read above, how likely is it that Cole believes that Charley speaks Spanish?"",""qud"":""ai"",""content"":""charley"",""image"":""charley-ai""}",36316,NA,"{""stimFIRST"":100,""stimSECOND"":100}","[0,1]",NA,488e38a2-f311-4801-8a5f-015da88130ac,2024-03-27 14:54:43 CET
NA,NA,NA,NA,NA,survey,3,65399,0.0-3.0,"{""contextPart1"":""Sue runs a language school. She's currently working through a list of her teachers — Kate, Tom, Charley, Tatiana, and Riccardo — to identify who speaks Spanish. She occasionally consults Cole, who knows some teachers better. Sue keeps track on this list:"",""contextPart2"":""Next up, she wants to record in the list whether <b>CHARLEY</b> speaks Spanish. Sue says to her business partner:"",""utterance"":""Cole knows that Charley speaks Spanish"",""questionFIRST"":""Given what you have read above, how likely is it that Charley speaks Spanish?"",""questionSECOND"":""Given what you have read above, how likely is it that Cole believes that Charley speaks Spanish?"",""qud"":""ai"",""content"":""charley"",""image"":""charley-ai""}",22467,NA,"{""P0_Q0"":null,""age"":""30"",""gender"":""female"",""language"":""yes"",""amE"":""yes"",""edu"":""some college"",""comments"":""""}",NA,[],488e38a2-f311-4801-8a5f-015da88130ac,2024-03-27 14:54:43 CET
TRUE,FALSE,[],[],[],preload,0,1328,0.0-0.0,"{""contextPart1"":""Sue runs a language school. She’s trying to figure out how well her five assistants Kate, Tom, Cole, Tatiana, and Riccardo know her remote teacher Charley. Sue keeps track on this list:"",""contextPart2"":""Next up, she wants to record in her list whether <b>COLE</b> believes that Charley speaks Spanish. Her business partner tells her:"",""utterance"":""Cole doesn't know that Charley speaks Spanish"",""questionFIRST"":""Given what you have read above, how likely is it that Cole believes that Charley speaks Spanish?"",""questionSECOND"":""Given what you have read above, how likely is it that Charley speaks Spanish?"",""qud"":""nai"",""content"":""charley"",""image"":""charley-nai""}",NA,NA,NA,NA,NA,01182952-1aa4-4b4b-9cf9-98376035f258,2024-03-27 14:55:25 CET
NA,NA,NA,NA,NA,html-button-response,1,15267,0.0-1.0,"{""contextPart1"":""Sue runs a language school. She’s trying to figure out how well her five assistants Kate, Tom, Cole, Tatiana, and Riccardo know her remote teacher Charley. Sue keeps track on this list:"",""contextPart2"":""Next up, she wants to record in her list whether <b>COLE</b> believes that Charley speaks Spanish. Her business partner tells her:"",""utterance"":""Cole doesn't know that Charley speaks Spanish"",""questionFIRST"":""Given what you have read above, how likely is it that Cole believes that Charley speaks Spanish?"",""questionSECOND"":""Given what you have read above, how likely is it that Charley speaks Spanish?"",""qud"":""nai"",""content"":""charley"",""image"":""charley-nai""}",13936,"<h3>Instructions</h3>  <p style='text-align:left'>In this experiment, you will read a short text and see an image. We will ask you two questions about what you have read. You will give your responses on a slider. </p>  <p style='text-align:left'>At the end of the experiment, we will ask you some demographic questions. The experiment will take less than two minutes.</p>  <p style='text-align:left' font size=""1"">By clicking on the button below you agree to participate in the experiment, which is conducted by language researchers. You may withdraw at any time. The data collected will be anonymous and confidential. If you have any questions, you may contact the experimenters through Prolific's platform.</p>",0,NA,NA,01182952-1aa4-4b4b-9cf9-98376035f258,2024-03-27 14:55:25 CET
NA,NA,NA,NA,NA,multiple-slider,2,40640,0.0-2.0-0.0,"{""contextPart1"":""Sue runs a language school. She’s trying to figure out how well her five assistants Kate, Tom, Cole, Tatiana, and Riccardo know her remote teacher Charley. Sue keeps track on this list:"",""contextPart2"":""Next up, she wants to record in her list whether <b>COLE</b> believes that Charley speaks Spanish. Her business partner tells her:"",""utterance"":""Cole doesn't know that Charley speaks Spanish"",""questionFIRST"":""Given what you have read above, how likely is it that Cole believes that Charley speaks Spanish?"",""questionSECOND"":""Given what you have read above, how likely is it that Charley speaks Spanish?"",""qud"":""nai"",""content"":""charley"",""image"":""charley-nai""}",25369.10000000149,NA,"{""stimFIRST"":0,""stimSECOND"":100}","[0,1]",NA,01182952-1aa4-4b4b-9cf9-98376035f258,2024-03-27 14:55:25 CET
NA,NA,NA,NA,NA,survey,3,55897,0.0-3.0,"{""contextPart1"":""Sue runs a language school. She’s trying to figure out how well her five assistants Kate, Tom, Cole, Tatiana, and Riccardo know her remote teacher Charley. Sue keeps track on this list:"",""contextPart2"":""Next up, she wants to record in her list whether <b>COLE</b> believes that Charley speaks Spanish. Her business partner tells her:"",""utterance"":""Cole doesn't know that Charley speaks Spanish"",""questionFIRST"":""Given what you have read above, how likely is it that Cole believes that Charley speaks Spanish?"",""questionSECOND"":""Given what you have read above, how likely is it that Charley speaks Spanish?"",""qud"":""nai"",""content"":""charley"",""image"":""charley-nai""}",15164,NA,"{""P0_Q0"":null,""age"":""26"",""gender"":""female"",""language"":""yes"",""amE"":""yes"",""edu"":""graduated college"",""comments"":""""}",NA,[],01182952-1aa4-4b4b-9cf9-98376035f258,2024-03-27 14:55:25 CET
TRUE,FALSE,[],[],[],preload,0,414,0.0-0.0,"{""contextPart1"":""Sue runs a fitness club. She’s currently working through a list of her clients — Kate, Tom, Charley, Tatiana, and Riccardo —  to identify who ran ten miles over the weekend. She occasionally consults her assistant Cole, who knows some clients better. Here is Sue's list:"",""contextPart2"":""Next up, she wants to record in the list whether <b>JACKSON</b> ran ten miles. Sue says to her business partner:"",""utterance"":""Cole doesn't know that Jackson ran ten miles"",""questionFIRST"":""Given what you have read above, how likely is it that Jackson ran ten miles?"",""questionSECOND"":""Given what you have read above, how likely is it that Cole believes that Jackson ran ten miles?"",""qud"":""ai"",""content"":""jackson"",""image"":""jackson-ai""}",NA,NA,NA,NA,NA,1896fc1b-47dc-4c31-b0be-db456bbe54ba,2024-03-27 14:55:37 CET
NA,NA,NA,NA,NA,html-button-response,1,2267,0.0-1.0,"{""contextPart1"":""Sue runs a fitness club. She’s currently working through a list of her clients — Kate, Tom, Charley, Tatiana, and Riccardo —  to identify who ran ten miles over the weekend. She occasionally consults her assistant Cole, who knows some clients better. Here is Sue's list:"",""contextPart2"":""Next up, she wants to record in the list whether <b>JACKSON</b> ran ten miles. Sue says to her business partner:"",""utterance"":""Cole doesn't know that Jackson ran ten miles"",""questionFIRST"":""Given what you have read above, how likely is it that Jackson ran ten miles?"",""questionSECOND"":""Given what you have read above, how likely is it that Cole believes that Jackson ran ten miles?"",""qud"":""ai"",""content"":""jackson"",""image"":""jackson-ai""}",1850,"<h3>Instructions</h3>  <p style='text-align:left'>In this experiment, you will read a short text and see an image. We will ask you two questions about what you have read. You will give your responses on a slider. </p>  <p style='text-align:left'>At the end of the experiment, we will ask you some demographic questions. The experiment will take less than two minutes.</p>  <p style='text-align:left' font size=""1"">By clicking on the button below you agree to participate in the experiment, which is conducted by language researchers. You may withdraw at any time. The data collected will be anonymous and confidential. If you have any questions, you may contact the experimenters through Prolific's platform.</p>",0,NA,NA,1896fc1b-47dc-4c31-b0be-db456bbe54ba,2024-03-27 14:55:37 CET
NA,NA,NA,NA,NA,multiple-slider,2,60895,0.0-2.0-0.0,"{""contextPart1"":""Sue runs a fitness club. She’s currently working through a list of her clients — Kate, Tom, Charley, Tatiana, and Riccardo —  to identify who ran ten miles over the weekend. She occasionally consults her assistant Cole, who knows some clients better. Here is Sue's list:"",""contextPart2"":""Next up, she wants to record in the list whether <b>JACKSON</b> ran ten miles. Sue says to her business partner:"",""utterance"":""Cole doesn't know that Jackson ran ten miles"",""questionFIRST"":""Given what you have read above, how likely is it that Jackson ran ten miles?"",""questionSECOND"":""Given what you have read above, how likely is it that Cole believes that Jackson ran ten miles?"",""qud"":""ai"",""content"":""jackson"",""image"":""jackson-ai""}",58625.59999999404,NA,"{""stimFIRST"":100,""stimSECOND"":50}","[0,1]",NA,1896fc1b-47dc-4c31-b0be-db456bbe54ba,2024-03-27 14:55:37 CET
NA,NA,NA,NA,NA,survey,3,92033,0.0-3.0,"{""contextPart1"":""Sue runs a fitness club. She’s currently working through a list of her clients — Kate, Tom, Charley, Tatiana, and Riccardo —  to identify who ran ten miles over the weekend. She occasionally consults her assistant Cole, who knows some clients better. Here is Sue's list:"",""contextPart2"":""Next up, she wants to record in the list whether <b>JACKSON</b> ran ten miles. Sue says to her business partner:"",""utterance"":""Cole doesn't know that Jackson ran ten miles"",""questionFIRST"":""Given what you have read above, how likely is it that Jackson ran ten miles?"",""questionSECOND"":""Given what you have read above, how likely is it that Cole believes that Jackson ran ten miles?"",""qud"":""ai"",""content"":""jackson"",""image"":""jackson-ai""}",31097,NA,"{""P0_Q0"":null,""age"":""34"",""gender"":""female"",""language"":""yes"",""amE"":""yes"",""edu"":""graduated college"",""comments"":""Who's Jackson and what happened to Charley?""}",NA,[],1896fc1b-47dc-4c31-b0be-db456bbe54ba,2024-03-27 14:55:37 CET
TRUE,FALSE,[],[],[],preload,0,402,0.0-0.0,"{""contextPart1"":""Sue runs a language school. She’s trying to figure out how well her five assistants Kate, Tom, Cole, Tatiana, and Riccardo know her remote teacher Charley. Sue keeps track on this list:"",""contextPart2"":""Next up, she wants to record in her list whether <b>COLE</b> believes that Charley speaks Spanish. Her business partner tells her:"",""utterance"":""Cole knows that Charley speaks Spanish"",""questionFIRST"":""Given what you have read above, how likely is it that Cole believes that Charley speaks Spanish?"",""questionSECOND"":""Given what you have read above, how likely is it that Charley speaks Spanish?"",""qud"":""nai"",""content"":""charley"",""image"":""charley-nai""}",NA,NA,NA,NA,NA,20096ee8-376a-46da-8e55-cd64ba130ce4,2024-03-27 14:56:43 CET
NA,NA,NA,NA,NA,html-button-response,1,1951,0.0-1.0,"{""contextPart1"":""Sue runs a language school. She’s trying to figure out how well her five assistants Kate, Tom, Cole, Tatiana, and Riccardo know her remote teacher Charley. Sue keeps track on this list:"",""contextPart2"":""Next up, she wants to record in her list whether <b>COLE</b> believes that Charley speaks Spanish. Her business partner tells her:"",""utterance"":""Cole knows that Charley speaks Spanish"",""questionFIRST"":""Given what you have read above, how likely is it that Cole believes that Charley speaks Spanish?"",""questionSECOND"":""Given what you have read above, how likely is it that Charley speaks Spanish?"",""qud"":""nai"",""content"":""charley"",""image"":""charley-nai""}",1546,"<h3>Instructions</h3>  <p style='text-align:left'>In this experiment, you will read a short text and see an image. We will ask you two questions about what you have read. You will give your responses on a slider. </p>  <p style='text-align:left'>At the end of the experiment, we will ask you some demographic questions. The experiment will take less than two minutes.</p>  <p style='text-align:left' font size=""1"">By clicking on the button below you agree to participate in the experiment, which is conducted by language researchers. You may withdraw at any time. The data collected will be anonymous and confidential. If you have any questions, you may contact the experimenters through Prolific's platform.</p>",0,NA,NA,20096ee8-376a-46da-8e55-cd64ba130ce4,2024-03-27 14:56:43 CET
NA,NA,NA,NA,NA,multiple-slider,2,29220,0.0-2.0-0.0,"{""contextPart1"":""Sue runs a language school. She’s trying to figure out how well her five assistants Kate, Tom, Cole, Tatiana, and Riccardo know her remote teacher Charley. Sue keeps track on this list:"",""contextPart2"":""Next up, she wants to record in her list whether <b>COLE</b> believes that Charley speaks Spanish. Her business partner tells her:"",""utterance"":""Cole knows that Charley speaks Spanish"",""questionFIRST"":""Given what you have read above, how likely is it that Cole believes that Charley speaks Spanish?"",""questionSECOND"":""Given what you have read above, how likely is it that Charley speaks Spanish?"",""qud"":""nai"",""content"":""charley"",""image"":""charley-nai""}",27263.39999999851,NA,"{""stimFIRST"":100,""stimSECOND"":80}","[0,1]",NA,20096ee8-376a-46da-8e55-cd64ba130ce4,2024-03-27 14:56:43 CET
NA,NA,NA,NA,NA,survey,3,40495,0.0-3.0,"{""contextPart1"":""Sue runs a language school. She’s trying to figure out how well her five assistants Kate, Tom, Cole, Tatiana, and Riccardo know her remote teacher Charley. Sue keeps track on this list:"",""contextPart2"":""Next up, she wants to record in her list whether <b>COLE</b> believes that Charley speaks Spanish. Her business partner tells her:"",""utterance"":""Cole knows that Charley speaks Spanish"",""questionFIRST"":""Given what you have read above, how likely is it that Cole believes that Charley speaks Spanish?"",""questionSECOND"":""Given what you have read above, how likely is it that Charley speaks Spanish?"",""qud"":""nai"",""content"":""charley"",""image"":""charley-nai""}",11212,NA,"{""P0_Q0"":null,""age"":""24"",""gender"":""male"",""language"":""yes"",""amE"":""yes"",""edu"":""graduated college"",""comments"":""""}",NA,[],20096ee8-376a-46da-8e55-cd64ba130ce4,2024-03-27 14:56:43 CET
TRUE,FALSE,[],[],[],preload,0,392,0.0-0.0,"{""contextPart1"":""Sue runs a fitness club. She’s currently working through a list of her clients — Kate, Tom, Charley, Tatiana, and Riccardo —  to identify who ran ten miles over the weekend. She occasionally consults her assistant Cole, who knows some clients better. Here is Sue's list:"",""contextPart2"":""Next up, she wants to record in the list whether <b>JACKSON</b> ran ten miles. Sue says to her business partner:"",""utterance"":""Cole doesn't know that Jackson ran ten miles"",""questionFIRST"":""Given what you have read above, how likely is it that Jackson ran ten miles?"",""questionSECOND"":""Given what you have read above, how likely is it that Cole believes that Jackson ran ten miles?"",""qud"":""ai"",""content"":""jackson"",""image"":""jackson-ai""}",NA,NA,NA,NA,NA,7b89f466-19ff-487b-88fa-ac51e3454bce,2024-03-27 14:56:48 CET
NA,NA,NA,NA,NA,html-button-response,1,11338,0.0-1.0,"{""contextPart1"":""Sue runs a fitness club. She’s currently working through a list of her clients — Kate, Tom, Charley, Tatiana, and Riccardo —  to identify who ran ten miles over the weekend. She occasionally consults her assistant Cole, who knows some clients better. Here is Sue's list:"",""contextPart2"":""Next up, she wants to record in the list whether <b>JACKSON</b> ran ten miles. Sue says to her business partner:"",""utterance"":""Cole doesn't know that Jackson ran ten miles"",""questionFIRST"":""Given what you have read above, how likely is it that Jackson ran ten miles?"",""questionSECOND"":""Given what you have read above, how likely is it that Cole believes that Jackson ran ten miles?"",""qud"":""ai"",""content"":""jackson"",""image"":""jackson-ai""}",10945,"<h3>Instructions</h3>  <p style='text-align:left'>In this experiment, you will read a short text and see an image. We will ask you two questions about what you have read. You will give your responses on a slider. </p>  <p style='text-align:left'>At the end of the experiment, we will ask you some demographic questions. The experiment will take less than two minutes.</p>  <p style='text-align:left' font size=""1"">By clicking on the button below you agree to participate in the experiment, which is conducted by language researchers. You may withdraw at any time. The data collected will be anonymous and confidential. If you have any questions, you may contact the experimenters through Prolific's platform.</p>",0,NA,NA,7b89f466-19ff-487b-88fa-ac51e3454bce,2024-03-27 14:56:48 CET
NA,NA,NA,NA,NA,multiple-slider,2,55671,0.0-2.0-0.0,"{""contextPart1"":""Sue runs a fitness club. She’s currently working through a list of her clients — Kate, Tom, Charley, Tatiana, and Riccardo —  to identify who ran ten miles over the weekend. She occasionally consults her assistant Cole, who knows some clients better. Here is Sue's list:"",""contextPart2"":""Next up, she wants to record in the list whether <b>JACKSON</b> ran ten miles. Sue says to her business partner:"",""utterance"":""Cole doesn't know that Jackson ran ten miles"",""questionFIRST"":""Given what you have read above, how likely is it that Jackson ran ten miles?"",""questionSECOND"":""Given what you have read above, how likely is it that Cole believes that Jackson ran ten miles?"",""qud"":""ai"",""content"":""jackson"",""image"":""jackson-ai""}",44332,NA,"{""stimFIRST"":29,""stimSECOND"":9}","[0,1]",NA,7b89f466-19ff-487b-88fa-ac51e3454bce,2024-03-27 14:56:48 CET
NA,NA,NA,NA,NA,survey,3,95275,0.0-3.0,"{""contextPart1"":""Sue runs a fitness club. She’s currently working through a list of her clients — Kate, Tom, Charley, Tatiana, and Riccardo —  to identify who ran ten miles over the weekend. She occasionally consults her assistant Cole, who knows some clients better. Here is Sue's list:"",""contextPart2"":""Next up, she wants to record in the list whether <b>JACKSON</b> ran ten miles. Sue says to her business partner:"",""utterance"":""Cole doesn't know that Jackson ran ten miles"",""questionFIRST"":""Given what you have read above, how likely is it that Jackson ran ten miles?"",""questionSECOND"":""Given what you have read above, how likely is it that Cole believes that Jackson ran ten miles?"",""qud"":""ai"",""content"":""jackson"",""image"":""jackson-ai""}",39578,NA,"{""P0_Q0"":null,""age"":""41"",""gender"":""female"",""language"":""yes"",""amE"":""yes"",""edu"":""graduated college"",""comments"":""I like the functionality of the study. It is easy to use with no issues. The study was also clearly worded, and explained well.""}",NA,[],7b89f466-19ff-487b-88fa-ac51e3454bce,2024-03-27 14:56:48 CET
