rt,stimulus,response,trial_type,trial_index,time_elapsed,internal_node_id,slider_start,accuracy,participant_id,ctime
3242,"<h3>Instructions</h3>  <p style='text-align:left'>In this experiment, you will read a short text and we will ask you a question about what you have read. You will give your response on a slider. </p>  <p style='text-align:left'>At the end of the experiment, we will ask you some demographic questions. The experiment will take less than two minutes.</p>  <p style='text-align:left' font size=""1"">By clicking on the button below you agree to participate in the experiment, which is conducted by language researchers. You may withdraw at any time. The data collected will be anonymous and confidential. If you have any questions, you may contact the experimenters through Prolific's platform.</p>",0,html-button-response,0,3245,0.0-0.0,NA,NA,247b7fa9-6ab4-4058-89ef-b61d15a69dc6,2024-03-13 12:22:54 CET
43142,"Please read this text: <br><br><b>Sue runs a fitness club. She’s trying to evaluate how well her new assistant, Cole, knows her clients, who are at all levels of fitness. Sue’s business partner tells her what Cole said about Jackson, who is obese:<em> ""Cole knows that Jackson ran ten miles.""</b></em><br> <br> <br> <br> Given what you have read above, how likely is it that Jackson ran ten miles?",91,html-slider-response,1,46388,0.0-1.0-0.0,50,NA,247b7fa9-6ab4-4058-89ef-b61d15a69dc6,2024-03-13 12:22:54 CET
16415,NA,"{""P0_Q0"":null,""age"":""37"",""gender"":""male"",""language"":""yes"",""amE"":""yes"",""edu"":""graduated college"",""comments"":""""}",survey,2,62830,0.0-2.0,NA,[],247b7fa9-6ab4-4058-89ef-b61d15a69dc6,2024-03-13 12:22:54 CET
10818,"<h3>Instructions</h3>  <p style='text-align:left'>In this experiment, you will read a short text and we will ask you a question about what you have read. You will give your response on a slider. </p>  <p style='text-align:left'>At the end of the experiment, we will ask you some demographic questions. The experiment will take less than two minutes.</p>  <p style='text-align:left' font size=""1"">By clicking on the button below you agree to participate in the experiment, which is conducted by language researchers. You may withdraw at any time. The data collected will be anonymous and confidential. If you have any questions, you may contact the experimenters through Prolific's platform.</p>",0,html-button-response,0,10825,0.0-0.0,NA,NA,b71e5284-8c94-41ba-8d95-0291dc001873,2024-03-13 12:27:22 CET
66976,"Please read this text: <br><br><b>Sue runs a company that connects language learners with remote teachers who live all over the world. She's putting together a list of the languages spoken by the remote teachers. After consulting her assistant, Cole, who knows the teachers and the languages they speak better than she does, Sue is currently working through the list of teachers to identify who speaks Spanish. When she gets to Charley, who lives in Mexico, Sue says to her business partner:<em> ""Cole doesn't know that Charley speaks Spanish.""</b></em><br> <br> <br> <br> Given what you have read above, how likely is it that Charley speaks Spanish?",87,html-slider-response,1,77813,0.0-1.0-0.0,50,NA,b71e5284-8c94-41ba-8d95-0291dc001873,2024-03-13 12:27:22 CET
23827,NA,"{""P0_Q0"":null,""age"":""60"",""gender"":""female"",""language"":""yes"",""amE"":""yes"",""edu"":""some college"",""comments"":""""}",survey,2,101735,0.0-2.0,NA,[],b71e5284-8c94-41ba-8d95-0291dc001873,2024-03-13 12:27:22 CET
7730,"<h3>Instructions</h3>  <p style='text-align:left'>In this experiment, you will read a short text and we will ask you a question about what you have read. You will give your response on a slider. </p>  <p style='text-align:left'>At the end of the experiment, we will ask you some demographic questions. The experiment will take less than two minutes.</p>  <p style='text-align:left' font size=""1"">By clicking on the button below you agree to participate in the experiment, which is conducted by language researchers. You may withdraw at any time. The data collected will be anonymous and confidential. If you have any questions, you may contact the experimenters through Prolific's platform.</p>",0,html-button-response,0,7745,0.0-0.0,NA,NA,a2f0637e-0b89-4431-b5f6-846607d445fb,2024-03-13 12:27:47 CET
76876,"Please read this text: <br><br><b>Sue runs a fitness club. She’s trying to evaluate how well her new assistant, Cole, knows her clients, who are at all levels of fitness. Sue’s business partner tells her what Cole said about Jackson, who is training for a marathon:<em> ""Cole doesn't know that Jackson ran ten miles.""</b></em><br> <br> <br> <br> Given what you have read above, how likely is it that Jackson ran ten miles?",100,html-slider-response,1,84626,0.0-1.0-0.0,50,NA,a2f0637e-0b89-4431-b5f6-846607d445fb,2024-03-13 12:27:47 CET
21397,NA,"{""P0_Q0"":null,""age"":""50"",""gender"":""male"",""language"":""yes"",""amE"":""yes"",""edu"":""graduated college"",""comments"":""""}",survey,2,106118,0.0-2.0,NA,[],a2f0637e-0b89-4431-b5f6-846607d445fb,2024-03-13 12:27:47 CET
3536,"<h3>Instructions</h3>  <p style='text-align:left'>In this experiment, you will read a short text and we will ask you a question about what you have read. You will give your response on a slider. </p>  <p style='text-align:left'>At the end of the experiment, we will ask you some demographic questions. The experiment will take less than two minutes.</p>  <p style='text-align:left' font size=""1"">By clicking on the button below you agree to participate in the experiment, which is conducted by language researchers. You may withdraw at any time. The data collected will be anonymous and confidential. If you have any questions, you may contact the experimenters through Prolific's platform.</p>",0,html-button-response,0,3561,0.0-0.0,NA,NA,1c2e7b3a-94c3-4d51-8cfa-6647853e23b4,2024-03-13 12:28:15 CET
40231,"Please read this text: <br><br><b>Sue runs a fitness club. She’s trying to evaluate how well her new assistant, Cole, knows her clients, who are at all levels of fitness. Sue’s business partner tells her what Cole said about Jackson, who is training for a marathon:<em> ""Cole knows that Jackson ran ten miles.""</b></em><br> <br> <br> <br> Given what you have read above, how likely is it that Jackson ran ten miles?",100,html-slider-response,1,43803,0.0-1.0-0.0,50,NA,1c2e7b3a-94c3-4d51-8cfa-6647853e23b4,2024-03-13 12:28:15 CET
22488,NA,"{""P0_Q0"":null,""age"":""46"",""gender"":""female"",""language"":""yes"",""amE"":""yes"",""edu"":""graduated college"",""comments"":""""}",survey,2,66418,0.0-2.0,NA,[],1c2e7b3a-94c3-4d51-8cfa-6647853e23b4,2024-03-13 12:28:15 CET
3163,"<h3>Instructions</h3>  <p style='text-align:left'>In this experiment, you will read a short text and we will ask you a question about what you have read. You will give your response on a slider. </p>  <p style='text-align:left'>At the end of the experiment, we will ask you some demographic questions. The experiment will take less than two minutes.</p>  <p style='text-align:left' font size=""1"">By clicking on the button below you agree to participate in the experiment, which is conducted by language researchers. You may withdraw at any time. The data collected will be anonymous and confidential. If you have any questions, you may contact the experimenters through Prolific's platform.</p>",0,html-button-response,0,3168,0.0-0.0,NA,NA,5d3cda2e-99c4-4e2b-aa9b-5b4581f10ba2,2024-03-13 12:32:39 CET
13180,"Please read this text: <br><br><b>Sue runs a fitness club. She’s trying to evaluate how well her new assistant, Cole, knows her clients, who are at all levels of fitness. Sue’s business partner tells her what Cole said about Jackson, who is obese:<em> ""Cole doesn't know that Jackson ran ten miles.""</b></em><br> <br> <br> <br> Given what you have read above, how likely is it that Jackson ran ten miles?",30,html-slider-response,1,16350,0.0-1.0-0.0,50,NA,5d3cda2e-99c4-4e2b-aa9b-5b4581f10ba2,2024-03-13 12:32:39 CET
15124,NA,"{""P0_Q0"":null,""age"":""24"",""gender"":""female"",""language"":""yes"",""amE"":""yes"",""edu"":""graduated high school"",""comments"":""""}",survey,2,31515,0.0-2.0,NA,[],5d3cda2e-99c4-4e2b-aa9b-5b4581f10ba2,2024-03-13 12:32:39 CET
4046,"<h3>Instructions</h3>  <p style='text-align:left'>In this experiment, you will read a short text and we will ask you a question about what you have read. You will give your response on a slider. </p>  <p style='text-align:left'>At the end of the experiment, we will ask you some demographic questions. The experiment will take less than two minutes.</p>  <p style='text-align:left' font size=""1"">By clicking on the button below you agree to participate in the experiment, which is conducted by language researchers. You may withdraw at any time. The data collected will be anonymous and confidential. If you have any questions, you may contact the experimenters through Prolific's platform.</p>",0,html-button-response,0,4054,0.0-0.0,NA,NA,3493d041-9411-471d-9882-ae6f9920df7f,2024-03-13 12:37:06 CET
26094,"Please read this text: <br><br><b>Sue runs a fitness club. She has special medals for clients that ran ten miles or more over the weekend. After consulting her assistant, Cole, who is better informed about her clients’ activities over the weekend, Sue is currently working through a list of clients, who are at all levels of fitness, to identify who gets a medal. When she gets to Jackson, who is training for a marathon, Sue says to her husband:<em> ""Cole doesn't know that Jackson ran ten miles.""</b></em><br> <br> <br> <br> Given what you have read above, how likely is it that Jackson ran ten miles?",41,html-slider-response,1,30150,0.0-1.0-0.0,50,NA,3493d041-9411-471d-9882-ae6f9920df7f,2024-03-13 12:37:06 CET
18066,NA,"{""P0_Q0"":null,""age"":""49"",""gender"":""female"",""language"":""yes"",""amE"":""yes"",""edu"":""some college"",""comments"":""""}",survey,2,48264,0.0-2.0,NA,[],3493d041-9411-471d-9882-ae6f9920df7f,2024-03-13 12:37:06 CET
2017,"<h3>Instructions</h3>  <p style='text-align:left'>In this experiment, you will read a short text and we will ask you a question about what you have read. You will give your response on a slider. </p>  <p style='text-align:left'>At the end of the experiment, we will ask you some demographic questions. The experiment will take less than two minutes.</p>  <p style='text-align:left' font size=""1"">By clicking on the button below you agree to participate in the experiment, which is conducted by language researchers. You may withdraw at any time. The data collected will be anonymous and confidential. If you have any questions, you may contact the experimenters through Prolific's platform.</p>",0,html-button-response,0,2022,0.0-0.0,NA,NA,ce31506c-fbfc-4ec7-b3d9-f52f5ec07947,2024-03-13 12:41:29 CET
39952,"Please read this text: <br><br><b>Sue runs a company that connects language learners with remote teachers who live all over the world. She's putting together a list of the languages spoken by the remote teachers. After consulting her assistant, Cole, who knows the teachers and the languages they speak better than she does, Sue is currently working through the list of teachers to identify who speaks Spanish. When she gets to Charley, who lives in Korea, Sue says to her business partner:<em> ""Cole thinks that Charley speaks Spanish.""</b></em><br> <br> <br> <br> Given what you have read above, how likely is it that Charley speaks Spanish?",100,html-slider-response,1,41976,0.0-1.0-0.0,50,NA,ce31506c-fbfc-4ec7-b3d9-f52f5ec07947,2024-03-13 12:41:29 CET
23492,NA,"{""P0_Q0"":null,""age"":""58"",""gender"":""male"",""language"":""yes"",""amE"":""yes"",""edu"":""some college"",""comments"":""""}",survey,2,65507,0.0-2.0,NA,[],ce31506c-fbfc-4ec7-b3d9-f52f5ec07947,2024-03-13 12:41:29 CET
13544,"<h3>Instructions</h3>  <p style='text-align:left'>In this experiment, you will read a short text and we will ask you a question about what you have read. You will give your response on a slider. </p>  <p style='text-align:left'>At the end of the experiment, we will ask you some demographic questions. The experiment will take less than two minutes.</p>  <p style='text-align:left' font size=""1"">By clicking on the button below you agree to participate in the experiment, which is conducted by language researchers. You may withdraw at any time. The data collected will be anonymous and confidential. If you have any questions, you may contact the experimenters through Prolific's platform.</p>",0,html-button-response,0,13552,0.0-0.0,NA,NA,fd7d78c2-860c-46d0-b853-145dc142da2f,2024-03-13 12:41:48 CET
53899,"Please read this text: <br><br><b>Sue runs a fitness club. She has special medals for clients that ran ten miles or more over the weekend. After consulting her assistant, Cole, who is better informed about her clients’ activities over the weekend, Sue is currently working through a list of clients, who are at all levels of fitness, to identify who gets a medal. When she gets to Jackson, who is training for a marathon, Sue says to her husband:<em> ""Cole thinks that Jackson ran ten miles.""</b></em><br> <br> <br> <br> Given what you have read above, how likely is it that Jackson ran ten miles?",81,html-slider-response,1,67452,0.0-1.0-0.0,50,NA,fd7d78c2-860c-46d0-b853-145dc142da2f,2024-03-13 12:41:48 CET
13973,NA,"{""P0_Q0"":null,""age"":""18"",""gender"":""male"",""language"":""yes"",""amE"":""yes"",""edu"":""some college"",""comments"":""""}",survey,2,81468,0.0-2.0,NA,[],fd7d78c2-860c-46d0-b853-145dc142da2f,2024-03-13 12:41:48 CET
1924,"<h3>Instructions</h3>  <p style='text-align:left'>In this experiment, you will read a short text and we will ask you a question about what you have read. You will give your response on a slider. </p>  <p style='text-align:left'>At the end of the experiment, we will ask you some demographic questions. The experiment will take less than two minutes.</p>  <p style='text-align:left' font size=""1"">By clicking on the button below you agree to participate in the experiment, which is conducted by language researchers. You may withdraw at any time. The data collected will be anonymous and confidential. If you have any questions, you may contact the experimenters through Prolific's platform.</p>",0,html-button-response,0,1933,0.0-0.0,NA,NA,64d9cfbe-4943-47e0-9945-e278da67698d,2024-03-13 12:42:45 CET
34877,"Please read this text: <br><br><b>Sue runs a company that connects language learners with remote teachers who live all over the world. She's putting together a list of the languages spoken by the remote teachers. After consulting her assistant, Cole, who knows the teachers and the languages they speak better than she does, Sue is currently working through the list of teachers to identify who speaks Spanish. When she gets to Charley, who lives in Korea, Sue says to her business partner:<em> ""Cole thinks that Charley speaks Spanish.""</b></em><br> <br> <br> <br> Given what you have read above, how likely is it that Charley speaks Spanish?",48,html-slider-response,1,36813,0.0-1.0-0.0,50,NA,64d9cfbe-4943-47e0-9945-e278da67698d,2024-03-13 12:42:45 CET
24775,NA,"{""P0_Q0"":null,""age"":""35"",""gender"":""male"",""language"":""yes"",""amE"":""yes"",""edu"":""hold a higher degree"",""comments"":""na""}",survey,2,61658,0.0-2.0,NA,[],64d9cfbe-4943-47e0-9945-e278da67698d,2024-03-13 12:42:45 CET
6552,"<h3>Instructions</h3>  <p style='text-align:left'>In this experiment, you will read a short text and we will ask you a question about what you have read. You will give your response on a slider. </p>  <p style='text-align:left'>At the end of the experiment, we will ask you some demographic questions. The experiment will take less than two minutes.</p>  <p style='text-align:left' font size=""1"">By clicking on the button below you agree to participate in the experiment, which is conducted by language researchers. You may withdraw at any time. The data collected will be anonymous and confidential. If you have any questions, you may contact the experimenters through Prolific's platform.</p>",0,html-button-response,0,6560,0.0-0.0,NA,NA,b2f5a552-9087-4fd3-8016-0a103d3a9492,2024-03-13 12:43:22 CET
58470,"Please read this text: <br><br><b>Sue runs a company that connects language learners with remote teachers who live all over the world. She's putting together a list of the languages spoken by the remote teachers. After consulting her assistant, Cole, who knows the teachers and the languages they speak better than she does, Sue is currently working through the list of teachers to identify who speaks Spanish. When she gets to Charley, who lives in Mexico, Sue says to her business partner:<em> ""Cole knows that Charley speaks Spanish.""</b></em><br> <br> <br> <br> Given what you have read above, how likely is it that Charley speaks Spanish?",100,html-slider-response,1,65030,0.0-1.0-0.0,50,NA,b2f5a552-9087-4fd3-8016-0a103d3a9492,2024-03-13 12:43:22 CET
19230,NA,"{""P0_Q0"":null,""age"":""41"",""gender"":""male"",""language"":""yes"",""amE"":""yes"",""edu"":""graduated college"",""comments"":""""}",survey,2,84297,0.0-2.0,NA,[],b2f5a552-9087-4fd3-8016-0a103d3a9492,2024-03-13 12:43:22 CET
51787,"<h3>Instructions</h3>  <p style='text-align:left'>In this experiment, you will read a short text and we will ask you a question about what you have read. You will give your response on a slider. </p>  <p style='text-align:left'>At the end of the experiment, we will ask you some demographic questions. The experiment will take less than two minutes.</p>  <p style='text-align:left' font size=""1"">By clicking on the button below you agree to participate in the experiment, which is conducted by language researchers. You may withdraw at any time. The data collected will be anonymous and confidential. If you have any questions, you may contact the experimenters through Prolific's platform.</p>",0,html-button-response,0,51803,0.0-0.0,NA,NA,7c6c2101-d2f2-4fdd-b2b4-ba1580894501,2024-03-13 12:45:45 CET
86774,"Please read this text: <br><br><b>Sue runs a company that connects language learners with remote teachers who live all over the world. She’s trying to figure out how well her assistant, Cole, knows her remote teachers. Sue’s business partner tells her what Cole said about Charley, who lives in Korea:<em> ""Cole doesn't think that Charley speaks Spanish.""</b></em><br> <br> <br> <br> Given what you have read above, how likely is it that Charley speaks Spanish?",69,html-slider-response,1,138581,0.0-1.0-0.0,50,NA,7c6c2101-d2f2-4fdd-b2b4-ba1580894501,2024-03-13 12:45:45 CET
63422,NA,"{""P0_Q0"":null,""age"":""56"",""gender"":""female"",""language"":""yes"",""amE"":""yes"",""edu"":""graduated college"",""comments"":""""}",survey,2,202129,0.0-2.0,NA,[],7c6c2101-d2f2-4fdd-b2b4-ba1580894501,2024-03-13 12:45:45 CET
15989,"<h3>Instructions</h3>  <p style='text-align:left'>In this experiment, you will read a short text and we will ask you a question about what you have read. You will give your response on a slider. </p>  <p style='text-align:left'>At the end of the experiment, we will ask you some demographic questions. The experiment will take less than two minutes.</p>  <p style='text-align:left' font size=""1"">By clicking on the button below you agree to participate in the experiment, which is conducted by language researchers. You may withdraw at any time. The data collected will be anonymous and confidential. If you have any questions, you may contact the experimenters through Prolific's platform.</p>",0,html-button-response,0,15996,0.0-0.0,NA,NA,e10fbf6a-eef4-4d64-8340-fe7aa66d4763,2024-03-13 12:47:21 CET
24407,"Please read this text: <br><br><b>Sue runs a company that connects language learners with remote teachers who live all over the world. She's putting together a list of the languages spoken by the remote teachers. After consulting her assistant, Cole, who knows the teachers and the languages they speak better than she does, Sue is currently working through the list of teachers to identify who speaks Spanish. When she gets to Charley, who lives in Mexico, Sue says to her business partner:<em> ""Cole thinks that Charley speaks Spanish.""</b></em><br> <br> <br> <br> Given what you have read above, how likely is it that Charley speaks Spanish?",80,html-slider-response,1,40408,0.0-1.0-0.0,50,NA,e10fbf6a-eef4-4d64-8340-fe7aa66d4763,2024-03-13 12:47:21 CET
14638,NA,"{""P0_Q0"":null,""age"":""25"",""gender"":""female"",""language"":""yes"",""amE"":""yes"",""edu"":""graduated college"",""comments"":""""}",survey,2,55108,0.0-2.0,NA,[],e10fbf6a-eef4-4d64-8340-fe7aa66d4763,2024-03-13 12:47:21 CET
14185,"<h3>Instructions</h3>  <p style='text-align:left'>In this experiment, you will read a short text and we will ask you a question about what you have read. You will give your response on a slider. </p>  <p style='text-align:left'>At the end of the experiment, we will ask you some demographic questions. The experiment will take less than two minutes.</p>  <p style='text-align:left' font size=""1"">By clicking on the button below you agree to participate in the experiment, which is conducted by language researchers. You may withdraw at any time. The data collected will be anonymous and confidential. If you have any questions, you may contact the experimenters through Prolific's platform.</p>",0,html-button-response,0,14201,0.0-0.0,NA,NA,ca276d87-8559-43ec-9ef8-474a6b8c6fa9,2024-03-13 12:47:37 CET
74135,"Please read this text: <br><br><b>Sue runs a company that connects language learners with remote teachers who live all over the world. She’s trying to figure out how well her assistant, Cole, knows her remote teachers. Sue’s business partner tells her what Cole said about Charley, who lives in Korea:<em> ""Cole doesn't know that Charley speaks Spanish.""</b></em><br> <br> <br> <br> Given what you have read above, how likely is it that Charley speaks Spanish?",0,html-slider-response,1,88343,0.0-1.0-0.0,50,NA,ca276d87-8559-43ec-9ef8-474a6b8c6fa9,2024-03-13 12:47:37 CET
20772,NA,"{""P0_Q0"":null,""age"":""27"",""gender"":""female"",""language"":""yes"",""amE"":""yes"",""edu"":""some high school"",""comments"":""""}",survey,2,109240,0.0-2.0,NA,[],ca276d87-8559-43ec-9ef8-474a6b8c6fa9,2024-03-13 12:47:37 CET
6700,"<h3>Instructions</h3>  <p style='text-align:left'>In this experiment, you will read a short text and we will ask you a question about what you have read. You will give your response on a slider. </p>  <p style='text-align:left'>At the end of the experiment, we will ask you some demographic questions. The experiment will take less than two minutes.</p>  <p style='text-align:left' font size=""1"">By clicking on the button below you agree to participate in the experiment, which is conducted by language researchers. You may withdraw at any time. The data collected will be anonymous and confidential. If you have any questions, you may contact the experimenters through Prolific's platform.</p>",0,html-button-response,0,6707,0.0-0.0,NA,NA,d2dc5966-2985-472f-9889-fef3d8e336ff,2024-03-13 12:49:04 CET
37777,"Please read this text: <br><br><b>Sue runs a company that connects language learners with remote teachers who live all over the world. She’s trying to figure out how well her assistant, Cole, knows her remote teachers. Sue’s business partner tells her what Cole said about Charley, who lives in Korea:<em> ""Cole doesn't think that Charley speaks Spanish.""</b></em><br> <br> <br> <br> Given what you have read above, how likely is it that Charley speaks Spanish?",4,html-slider-response,1,44498,0.0-1.0-0.0,50,NA,d2dc5966-2985-472f-9889-fef3d8e336ff,2024-03-13 12:49:04 CET
18236,NA,"{""P0_Q0"":null,""age"":""62"",""gender"":""female"",""language"":""yes"",""amE"":""yes"",""edu"":""graduated college"",""comments"":""""}",survey,2,62776,0.0-2.0,NA,[],d2dc5966-2985-472f-9889-fef3d8e336ff,2024-03-13 12:49:04 CET
6896,"<h3>Instructions</h3>  <p style='text-align:left'>In this experiment, you will read a short text and we will ask you a question about what you have read. You will give your response on a slider. </p>  <p style='text-align:left'>At the end of the experiment, we will ask you some demographic questions. The experiment will take less than two minutes.</p>  <p style='text-align:left' font size=""1"">By clicking on the button below you agree to participate in the experiment, which is conducted by language researchers. You may withdraw at any time. The data collected will be anonymous and confidential. If you have any questions, you may contact the experimenters through Prolific's platform.</p>",0,html-button-response,0,6902,0.0-0.0,NA,NA,606f4916-f37e-46ca-90ee-405aa9362ae7,2024-03-13 12:49:10 CET
28105,"Please read this text: <br><br><b>Sue runs a fitness club. She has special medals for clients that ran ten miles or more over the weekend. Sue is currently working through a list of clients, who are at all levels of fitness, to identify who gets a medal. When she gets to Jackson, who is obese, Sue says to her husband:<em> ""Jackson ran ten miles.""</b></em><br> <br> <br> <br> Given what you have read above, how likely is it that Jackson ran ten miles?",30,html-slider-response,1,35009,0.0-1.0-0.0,50,NA,606f4916-f37e-46ca-90ee-405aa9362ae7,2024-03-13 12:49:10 CET
41486,NA,"{""P0_Q0"":null,""age"":""58"",""gender"":""male"",""language"":""yes"",""amE"":""yes"",""edu"":""graduated college"",""comments"":""None""}",survey,2,76543,0.0-2.0,NA,[],606f4916-f37e-46ca-90ee-405aa9362ae7,2024-03-13 12:49:10 CET
9520,"<h3>Instructions</h3>  <p style='text-align:left'>In this experiment, you will read a short text and we will ask you a question about what you have read. You will give your response on a slider. </p>  <p style='text-align:left'>At the end of the experiment, we will ask you some demographic questions. The experiment will take less than two minutes.</p>  <p style='text-align:left' font size=""1"">By clicking on the button below you agree to participate in the experiment, which is conducted by language researchers. You may withdraw at any time. The data collected will be anonymous and confidential. If you have any questions, you may contact the experimenters through Prolific's platform.</p>",0,html-button-response,0,9531,0.0-0.0,NA,NA,66fa9fc9-cbda-4cb5-9a4d-6a64b975fb67,2024-03-13 12:50:15 CET
17863,"Please read this text: <br><br><b>Sue runs a company that connects language learners with remote teachers who live all over the world. She’s trying to figure out how well her assistant, Cole, knows her remote teachers. Sue’s business partner tells her what Cole said about Charley, who lives in Mexico:<em> ""Cole knows that Charley speaks Spanish.""</b></em><br> <br> <br> <br> Given what you have read above, how likely is it that Charley speaks Spanish?",100,html-slider-response,1,27396,0.0-1.0-0.0,50,NA,66fa9fc9-cbda-4cb5-9a4d-6a64b975fb67,2024-03-13 12:50:15 CET
12920,NA,"{""P0_Q0"":null,""age"":""33"",""gender"":""male"",""language"":""yes"",""amE"":""yes"",""edu"":""hold a higher degree"",""comments"":""""}",survey,2,40371,0.0-2.0,NA,[],66fa9fc9-cbda-4cb5-9a4d-6a64b975fb67,2024-03-13 12:50:15 CET
5198,"<h3>Instructions</h3>  <p style='text-align:left'>In this experiment, you will read a short text and we will ask you a question about what you have read. You will give your response on a slider. </p>  <p style='text-align:left'>At the end of the experiment, we will ask you some demographic questions. The experiment will take less than two minutes.</p>  <p style='text-align:left' font size=""1"">By clicking on the button below you agree to participate in the experiment, which is conducted by language researchers. You may withdraw at any time. The data collected will be anonymous and confidential. If you have any questions, you may contact the experimenters through Prolific's platform.</p>",0,html-button-response,0,5204,0.0-0.0,NA,NA,dfb89dc6-a670-4870-8cdc-11b9811f7a0e,2024-03-13 12:51:49 CET
30130,"Please read this text: <br><br><b>Sue runs a fitness club. She has special medals for clients that ran ten miles or more over the weekend. After consulting her assistant, Cole, who is better informed about her clients’ activities over the weekend, Sue is currently working through a list of clients, who are at all levels of fitness, to identify who gets a medal. When she gets to Jackson, who is training for a marathon, Sue says to her husband:<em> ""Cole doesn't know that Jackson ran ten miles.""</b></em><br> <br> <br> <br> Given what you have read above, how likely is it that Jackson ran ten miles?",98,html-slider-response,1,35334,0.0-1.0-0.0,50,NA,dfb89dc6-a670-4870-8cdc-11b9811f7a0e,2024-03-13 12:51:49 CET
22278,NA,"{""P0_Q0"":null,""age"":""47"",""gender"":""female"",""language"":""yes"",""amE"":""yes"",""edu"":""some college"",""comments"":""""}",survey,2,57649,0.0-2.0,NA,[],dfb89dc6-a670-4870-8cdc-11b9811f7a0e,2024-03-13 12:51:49 CET
13697,"<h3>Instructions</h3>  <p style='text-align:left'>In this experiment, you will read a short text and we will ask you a question about what you have read. You will give your response on a slider. </p>  <p style='text-align:left'>At the end of the experiment, we will ask you some demographic questions. The experiment will take less than two minutes.</p>  <p style='text-align:left' font size=""1"">By clicking on the button below you agree to participate in the experiment, which is conducted by language researchers. You may withdraw at any time. The data collected will be anonymous and confidential. If you have any questions, you may contact the experimenters through Prolific's platform.</p>",0,html-button-response,0,13701,0.0-0.0,NA,NA,557cc1b1-f923-465b-bbb2-d67491568b88,2024-03-13 12:52:36 CET
34525,"Please read this text: <br><br><b>Sue runs a company that connects language learners with remote teachers who live all over the world. She's putting together a list of the languages spoken by the remote teachers. Sue is currently working through the list of teachers to identify who speaks Spanish. When she gets to Charley, who lives in Korea, Sue says to her business partner:<em> ""Charley doesn't speak Spanish.""</b></em><br> <br> <br> <br> Given what you have read above, how likely is it that Charley speaks Spanish?",31,html-slider-response,1,48227,0.0-1.0-0.0,50,NA,557cc1b1-f923-465b-bbb2-d67491568b88,2024-03-13 12:52:36 CET
26332,NA,"{""P0_Q0"":null,""age"":""47"",""gender"":""male"",""language"":""yes"",""amE"":""yes"",""edu"":""graduated college"",""comments"":""""}",survey,2,74592,0.0-2.0,NA,[],557cc1b1-f923-465b-bbb2-d67491568b88,2024-03-13 12:52:36 CET
7078,"<h3>Instructions</h3>  <p style='text-align:left'>In this experiment, you will read a short text and we will ask you a question about what you have read. You will give your response on a slider. </p>  <p style='text-align:left'>At the end of the experiment, we will ask you some demographic questions. The experiment will take less than two minutes.</p>  <p style='text-align:left' font size=""1"">By clicking on the button below you agree to participate in the experiment, which is conducted by language researchers. You may withdraw at any time. The data collected will be anonymous and confidential. If you have any questions, you may contact the experimenters through Prolific's platform.</p>",0,html-button-response,0,7083,0.0-0.0,NA,NA,cab37336-6ee6-4819-9767-782be28cc00a,2024-03-13 12:54:06 CET
64463,"Please read this text: <br><br><b>Sue runs a company that connects language learners with remote teachers who live all over the world. She's putting together a list of the languages spoken by the remote teachers. Sue is currently working through the list of teachers to identify who speaks Spanish. When she gets to Charley, who lives in Korea, Sue says to her business partner:<em> ""Charley speaks Spanish.""</b></em><br> <br> <br> <br> Given what you have read above, how likely is it that Charley speaks Spanish?",100,html-slider-response,1,71548,0.0-1.0-0.0,50,NA,cab37336-6ee6-4819-9767-782be28cc00a,2024-03-13 12:54:06 CET
466931,NA,"{""P0_Q0"":null,""age"":""37"",""gender"":""male"",""language"":""yes"",""amE"":""yes"",""edu"":""graduated college"",""comments"":""""}",survey,2,538558,0.0-2.0,NA,[],cab37336-6ee6-4819-9767-782be28cc00a,2024-03-13 12:54:06 CET
1814,"<h3>Instructions</h3>  <p style='text-align:left'>In this experiment, you will read a short text and we will ask you a question about what you have read. You will give your response on a slider. </p>  <p style='text-align:left'>At the end of the experiment, we will ask you some demographic questions. The experiment will take less than two minutes.</p>  <p style='text-align:left' font size=""1"">By clicking on the button below you agree to participate in the experiment, which is conducted by language researchers. You may withdraw at any time. The data collected will be anonymous and confidential. If you have any questions, you may contact the experimenters through Prolific's platform.</p>",0,html-button-response,0,1829,0.0-0.0,NA,NA,045c7deb-6344-4980-bf87-eb1f219b2692,2024-03-13 12:54:16 CET
39811,"Please read this text: <br><br><b>Sue runs a company that connects language learners with remote teachers who live all over the world. She’s trying to figure out how well her assistant, Cole, knows her remote teachers. Sue’s business partner tells her what Cole said about Charley, who lives in Korea:<em> ""Cole doesn't know that Charley speaks Spanish.""</b></em><br> <br> <br> <br> Given what you have read above, how likely is it that Charley speaks Spanish?",8,html-slider-response,1,41643,0.0-1.0-0.0,50,NA,045c7deb-6344-4980-bf87-eb1f219b2692,2024-03-13 12:54:16 CET
16094,NA,"{""P0_Q0"":null,""age"":""26"",""gender"":""female"",""language"":""yes"",""amE"":""yes"",""edu"":""hold a higher degree"",""comments"":""""}",survey,2,57808,0.0-2.0,NA,[],045c7deb-6344-4980-bf87-eb1f219b2692,2024-03-13 12:54:16 CET
2092,"<h3>Instructions</h3>  <p style='text-align:left'>In this experiment, you will read a short text and we will ask you a question about what you have read. You will give your response on a slider. </p>  <p style='text-align:left'>At the end of the experiment, we will ask you some demographic questions. The experiment will take less than two minutes.</p>  <p style='text-align:left' font size=""1"">By clicking on the button below you agree to participate in the experiment, which is conducted by language researchers. You may withdraw at any time. The data collected will be anonymous and confidential. If you have any questions, you may contact the experimenters through Prolific's platform.</p>",0,html-button-response,0,2225,0.0-0.0,NA,NA,2aa94984-9069-4844-a047-376e9bf9fe8d,2024-03-13 12:54:43 CET
16518,"Please read this text: <br><br><b>Sue runs a fitness club. She has special medals for clients that ran ten miles or more over the weekend. After consulting her assistant, Cole, who is better informed about her clients’ activities over the weekend, Sue is currently working through a list of clients, who are at all levels of fitness, to identify who gets a medal. When she gets to Jackson, who is training for a marathon, Sue says to her husband:<em> ""Cole thinks that Jackson ran ten miles.""</b></em><br> <br> <br> <br> Given what you have read above, how likely is it that Jackson ran ten miles?",55,html-slider-response,1,18745,0.0-1.0-0.0,50,NA,2aa94984-9069-4844-a047-376e9bf9fe8d,2024-03-13 12:54:43 CET
11892,NA,"{""P0_Q0"":null,""age"":""28"",""gender"":""non-binary"",""language"":""yes"",""amE"":""yes"",""edu"":""some college"",""comments"":""""}",survey,2,30854,0.0-2.0,NA,[],2aa94984-9069-4844-a047-376e9bf9fe8d,2024-03-13 12:54:43 CET
1175,"<h3>Instructions</h3>  <p style='text-align:left'>In this experiment, you will read a short text and we will ask you a question about what you have read. You will give your response on a slider. </p>  <p style='text-align:left'>At the end of the experiment, we will ask you some demographic questions. The experiment will take less than two minutes.</p>  <p style='text-align:left' font size=""1"">By clicking on the button below you agree to participate in the experiment, which is conducted by language researchers. You may withdraw at any time. The data collected will be anonymous and confidential. If you have any questions, you may contact the experimenters through Prolific's platform.</p>",0,html-button-response,0,1189,0.0-0.0,NA,NA,d06a8cac-773b-4a1e-96f5-6177a87a03ad,2024-03-13 12:54:56 CET
24771,"Please read this text: <br><br><b>Sue runs a fitness club. She’s trying to evaluate how well her new assistant, Cole, knows her clients, who are at all levels of fitness. Sue’s business partner tells her what Cole said about Jackson, who is training for a marathon:<em> ""Cole knows that Jackson ran ten miles.""</b></em><br> <br> <br> <br> Given what you have read above, how likely is it that Jackson ran ten miles?",93,html-slider-response,1,25964,0.0-1.0-0.0,50,NA,d06a8cac-773b-4a1e-96f5-6177a87a03ad,2024-03-13 12:54:56 CET
14230,NA,"{""P0_Q0"":null,""age"":""54"",""gender"":""female"",""language"":""yes"",""amE"":""yes"",""edu"":""graduated college"",""comments"":""""}",survey,2,40307,0.0-2.0,NA,[],d06a8cac-773b-4a1e-96f5-6177a87a03ad,2024-03-13 12:54:56 CET
1540,"<h3>Instructions</h3>  <p style='text-align:left'>In this experiment, you will read a short text and we will ask you a question about what you have read. You will give your response on a slider. </p>  <p style='text-align:left'>At the end of the experiment, we will ask you some demographic questions. The experiment will take less than two minutes.</p>  <p style='text-align:left' font size=""1"">By clicking on the button below you agree to participate in the experiment, which is conducted by language researchers. You may withdraw at any time. The data collected will be anonymous and confidential. If you have any questions, you may contact the experimenters through Prolific's platform.</p>",0,html-button-response,0,1545,0.0-0.0,NA,NA,1249f08a-e62a-40de-80da-3a66aa7ba742,2024-03-13 12:55:10 CET
25735,"Please read this text: <br><br><b>Sue runs a fitness club. She has special medals for clients that ran ten miles or more over the weekend. Sue is currently working through a list of clients, who are at all levels of fitness, to identify who gets a medal. When she gets to Jackson, who is training for a marathon, Sue says to her husband:<em> ""Jackson didn't run ten miles.""</b></em><br> <br> <br> <br> Given what you have read above, how likely is it that Jackson ran ten miles?",60,html-slider-response,1,27281,0.0-1.0-0.0,50,NA,1249f08a-e62a-40de-80da-3a66aa7ba742,2024-03-13 12:55:10 CET
15216,NA,"{""P0_Q0"":null,""age"":""21"",""gender"":""female"",""language"":""yes"",""amE"":""yes"",""edu"":""graduated high school"",""comments"":""""}",survey,2,42527,0.0-2.0,NA,[],1249f08a-e62a-40de-80da-3a66aa7ba742,2024-03-13 12:55:10 CET
4053,"<h3>Instructions</h3>  <p style='text-align:left'>In this experiment, you will read a short text and we will ask you a question about what you have read. You will give your response on a slider. </p>  <p style='text-align:left'>At the end of the experiment, we will ask you some demographic questions. The experiment will take less than two minutes.</p>  <p style='text-align:left' font size=""1"">By clicking on the button below you agree to participate in the experiment, which is conducted by language researchers. You may withdraw at any time. The data collected will be anonymous and confidential. If you have any questions, you may contact the experimenters through Prolific's platform.</p>",0,html-button-response,0,4060,0.0-0.0,NA,NA,6f80738e-eb7d-4975-8683-05fb1f667d55,2024-03-13 12:57:02 CET
81405,"Please read this text: <br><br><b>Sue runs a fitness club. She has special medals for clients that ran ten miles or more over the weekend. After consulting her assistant, Cole, who is better informed about her clients’ activities over the weekend, Sue is currently working through a list of clients, who are at all levels of fitness, to identify who gets a medal. When she gets to Jackson, who is obese, Sue says to her husband:<em> ""Cole doesn't know that Jackson ran ten miles.""</b></em><br> <br> <br> <br> Given what you have read above, how likely is it that Jackson ran ten miles?",89,html-slider-response,1,85467,0.0-1.0-0.0,50,NA,6f80738e-eb7d-4975-8683-05fb1f667d55,2024-03-13 12:57:02 CET
19245,NA,"{""P0_Q0"":null,""age"":""29"",""gender"":""male"",""language"":""yes"",""amE"":""yes"",""edu"":""graduated high school"",""comments"":""""}",survey,2,104755,0.0-2.0,NA,[],6f80738e-eb7d-4975-8683-05fb1f667d55,2024-03-13 12:57:02 CET
9410,"<h3>Instructions</h3>  <p style='text-align:left'>In this experiment, you will read a short text and we will ask you a question about what you have read. You will give your response on a slider. </p>  <p style='text-align:left'>At the end of the experiment, we will ask you some demographic questions. The experiment will take less than two minutes.</p>  <p style='text-align:left' font size=""1"">By clicking on the button below you agree to participate in the experiment, which is conducted by language researchers. You may withdraw at any time. The data collected will be anonymous and confidential. If you have any questions, you may contact the experimenters through Prolific's platform.</p>",0,html-button-response,0,9415,0.0-0.0,NA,NA,2466499f-b686-4597-99c4-db454481e524,2024-03-13 12:57:38 CET
34657,"Please read this text: <br><br><b>Sue runs a company that connects language learners with remote teachers who live all over the world. She's putting together a list of the languages spoken by the remote teachers. After consulting her assistant, Cole, who knows the teachers and the languages they speak better than she does, Sue is currently working through the list of teachers to identify who speaks Spanish. When she gets to Charley, who lives in Korea, Sue says to her business partner:<em> ""Cole doesn't know that Charley speaks Spanish.""</b></em><br> <br> <br> <br> Given what you have read above, how likely is it that Charley speaks Spanish?",100,html-slider-response,1,44073,0.0-1.0-0.0,50,NA,2466499f-b686-4597-99c4-db454481e524,2024-03-13 12:57:38 CET
16382,NA,"{""P0_Q0"":null,""age"":""30"",""gender"":""male"",""language"":""yes"",""amE"":""yes"",""edu"":""graduated college"",""comments"":""""}",survey,2,60483,0.0-2.0,NA,[],2466499f-b686-4597-99c4-db454481e524,2024-03-13 12:57:38 CET
2477,"<h3>Instructions</h3>  <p style='text-align:left'>In this experiment, you will read a short text and we will ask you a question about what you have read. You will give your response on a slider. </p>  <p style='text-align:left'>At the end of the experiment, we will ask you some demographic questions. The experiment will take less than two minutes.</p>  <p style='text-align:left' font size=""1"">By clicking on the button below you agree to participate in the experiment, which is conducted by language researchers. You may withdraw at any time. The data collected will be anonymous and confidential. If you have any questions, you may contact the experimenters through Prolific's platform.</p>",0,html-button-response,0,2488,0.0-0.0,NA,NA,a151c74b-e4a4-435c-ad81-1f7693ac52c7,2024-03-13 12:57:45 CET
24551,"Please read this text: <br><br><b>Sue runs a company that connects language learners with remote teachers who live all over the world. She's putting together a list of the languages spoken by the remote teachers. Sue is currently working through the list of teachers to identify who speaks Spanish. When she gets to Charley, who lives in Mexico, Sue says to her business partner:<em> ""Charley speaks Spanish.""</b></em><br> <br> <br> <br> Given what you have read above, how likely is it that Charley speaks Spanish?",100,html-slider-response,1,27044,0.0-1.0-0.0,50,NA,a151c74b-e4a4-435c-ad81-1f7693ac52c7,2024-03-13 12:57:45 CET
17748,NA,"{""P0_Q0"":null,""age"":""25"",""gender"":""female"",""language"":""yes"",""amE"":""yes"",""edu"":""graduated college"",""comments"":""""}",survey,2,44857,0.0-2.0,NA,[],a151c74b-e4a4-435c-ad81-1f7693ac52c7,2024-03-13 12:57:45 CET
2883,"<h3>Instructions</h3>  <p style='text-align:left'>In this experiment, you will read a short text and we will ask you a question about what you have read. You will give your response on a slider. </p>  <p style='text-align:left'>At the end of the experiment, we will ask you some demographic questions. The experiment will take less than two minutes.</p>  <p style='text-align:left' font size=""1"">By clicking on the button below you agree to participate in the experiment, which is conducted by language researchers. You may withdraw at any time. The data collected will be anonymous and confidential. If you have any questions, you may contact the experimenters through Prolific's platform.</p>",0,html-button-response,0,2891,0.0-0.0,NA,NA,7b816698-9ea2-4f01-835e-a4731219754e,2024-03-13 12:58:28 CET
38694,"Please read this text: <br><br><b>Sue runs a fitness club. She’s trying to evaluate how well her new assistant, Cole, knows her clients, who are at all levels of fitness. Sue’s business partner tells her what Cole said about Jackson, who is training for a marathon:<em> ""Cole thinks that Jackson ran ten miles.""</b></em><br> <br> <br> <br> Given what you have read above, how likely is it that Jackson ran ten miles?",96,html-slider-response,1,41588,0.0-1.0-0.0,50,NA,7b816698-9ea2-4f01-835e-a4731219754e,2024-03-13 12:58:28 CET
28941,NA,"{""P0_Q0"":null,""age"":""22"",""gender"":""non-binary"",""language"":""yes"",""amE"":""yes"",""edu"":""some college"",""comments"":""the website says not secure in the search bar""}",survey,2,70576,0.0-2.0,NA,[],7b816698-9ea2-4f01-835e-a4731219754e,2024-03-13 12:58:28 CET
1552,"<h3>Instructions</h3>  <p style='text-align:left'>In this experiment, you will read a short text and we will ask you a question about what you have read. You will give your response on a slider. </p>  <p style='text-align:left'>At the end of the experiment, we will ask you some demographic questions. The experiment will take less than two minutes.</p>  <p style='text-align:left' font size=""1"">By clicking on the button below you agree to participate in the experiment, which is conducted by language researchers. You may withdraw at any time. The data collected will be anonymous and confidential. If you have any questions, you may contact the experimenters through Prolific's platform.</p>",0,html-button-response,0,1556,0.0-0.0,NA,NA,d7410065-f96f-46d8-8e23-7f100820477d,2024-03-13 12:58:40 CET
9740,"Please read this text: <br><br><b>Sue runs a company that connects language learners with remote teachers who live all over the world. She's putting together a list of the languages spoken by the remote teachers. Sue is currently working through the list of teachers to identify who speaks Spanish. When she gets to Charley, who lives in Korea, Sue says to her business partner:<em> ""Charley doesn't speak Spanish.""</b></em><br> <br> <br> <br> Given what you have read above, how likely is it that Charley speaks Spanish?",6,html-slider-response,1,11300,0.0-1.0-0.0,50,NA,d7410065-f96f-46d8-8e23-7f100820477d,2024-03-13 12:58:40 CET
25790,NA,"{""P0_Q0"":null,""age"":""40"",""gender"":""female"",""language"":""yes"",""amE"":""yes"",""edu"":""graduated college"",""comments"":""None""}",survey,2,37167,0.0-2.0,NA,[],d7410065-f96f-46d8-8e23-7f100820477d,2024-03-13 12:58:40 CET
2295,"<h3>Instructions</h3>  <p style='text-align:left'>In this experiment, you will read a short text and we will ask you a question about what you have read. You will give your response on a slider. </p>  <p style='text-align:left'>At the end of the experiment, we will ask you some demographic questions. The experiment will take less than two minutes.</p>  <p style='text-align:left' font size=""1"">By clicking on the button below you agree to participate in the experiment, which is conducted by language researchers. You may withdraw at any time. The data collected will be anonymous and confidential. If you have any questions, you may contact the experimenters through Prolific's platform.</p>",0,html-button-response,0,2299,0.0-0.0,NA,NA,d4e196e3-4174-40f9-9ca7-ea22c14be596,2024-03-13 12:59:02 CET
32811,"Please read this text: <br><br><b>Sue runs a fitness club. She has special medals for clients that ran ten miles or more over the weekend. After consulting her assistant, Cole, who is better informed about her clients’ activities over the weekend, Sue is currently working through a list of clients, who are at all levels of fitness, to identify who gets a medal. When she gets to Jackson, who is obese, Sue says to her husband:<em> ""Cole doesn't know that Jackson ran ten miles.""</b></em><br> <br> <br> <br> Given what you have read above, how likely is it that Jackson ran ten miles?",98,html-slider-response,1,35114,0.0-1.0-0.0,50,NA,d4e196e3-4174-40f9-9ca7-ea22c14be596,2024-03-13 12:59:02 CET
17755,NA,"{""P0_Q0"":null,""age"":""35"",""gender"":""male"",""language"":""yes"",""amE"":""yes"",""edu"":""graduated college"",""comments"":""""}",survey,2,52939,0.0-2.0,NA,[],d4e196e3-4174-40f9-9ca7-ea22c14be596,2024-03-13 12:59:02 CET
8404,"<h3>Instructions</h3>  <p style='text-align:left'>In this experiment, you will read a short text and we will ask you a question about what you have read. You will give your response on a slider. </p>  <p style='text-align:left'>At the end of the experiment, we will ask you some demographic questions. The experiment will take less than two minutes.</p>  <p style='text-align:left' font size=""1"">By clicking on the button below you agree to participate in the experiment, which is conducted by language researchers. You may withdraw at any time. The data collected will be anonymous and confidential. If you have any questions, you may contact the experimenters through Prolific's platform.</p>",0,html-button-response,0,8414,0.0-0.0,NA,NA,d8db9fd1-fde7-439d-8cb2-aeef7a8796a5,2024-03-13 12:59:22 CET
47109,"Please read this text: <br><br><b>Sue runs a company that connects language learners with remote teachers who live all over the world. She's putting together a list of the languages spoken by the remote teachers. After consulting her assistant, Cole, who knows the teachers and the languages they speak better than she does, Sue is currently working through the list of teachers to identify who speaks Spanish. When she gets to Charley, who lives in Mexico, Sue says to her business partner:<em> ""Cole knows that Charley speaks Spanish.""</b></em><br> <br> <br> <br> Given what you have read above, how likely is it that Charley speaks Spanish?",100,html-slider-response,1,55526,0.0-1.0-0.0,50,NA,d8db9fd1-fde7-439d-8cb2-aeef7a8796a5,2024-03-13 12:59:22 CET
28253,NA,"{""P0_Q0"":null,""age"":""61"",""gender"":""female"",""language"":""yes"",""amE"":""yes"",""edu"":""graduated college"",""comments"":""short!""}",survey,2,83856,0.0-2.0,NA,[],d8db9fd1-fde7-439d-8cb2-aeef7a8796a5,2024-03-13 12:59:22 CET
10327,"<h3>Instructions</h3>  <p style='text-align:left'>In this experiment, you will read a short text and we will ask you a question about what you have read. You will give your response on a slider. </p>  <p style='text-align:left'>At the end of the experiment, we will ask you some demographic questions. The experiment will take less than two minutes.</p>  <p style='text-align:left' font size=""1"">By clicking on the button below you agree to participate in the experiment, which is conducted by language researchers. You may withdraw at any time. The data collected will be anonymous and confidential. If you have any questions, you may contact the experimenters through Prolific's platform.</p>",0,html-button-response,0,10339,0.0-0.0,NA,NA,69df0a17-b1fe-4eca-bd85-b81266ab4072,2024-03-13 12:59:25 CET
102581,"Please read this text: <br><br><b>Sue runs a company that connects language learners with remote teachers who live all over the world. She's putting together a list of the languages spoken by the remote teachers. Sue is currently working through the list of teachers to identify who speaks Spanish. When she gets to Charley, who lives in Mexico, Sue says to her business partner:<em> ""Charley doesn't speak Spanish.""</b></em><br> <br> <br> <br> Given what you have read above, how likely is it that Charley speaks Spanish?",0,html-slider-response,1,112922,0.0-1.0-0.0,50,NA,69df0a17-b1fe-4eca-bd85-b81266ab4072,2024-03-13 12:59:25 CET
75533,NA,"{""P0_Q0"":null,""age"":""66"",""gender"":""male"",""language"":""yes"",""amE"":""yes"",""edu"":""some college"",""comments"":""""}",survey,2,188528,0.0-2.0,NA,[],69df0a17-b1fe-4eca-bd85-b81266ab4072,2024-03-13 12:59:25 CET
12093,"<h3>Instructions</h3>  <p style='text-align:left'>In this experiment, you will read a short text and we will ask you a question about what you have read. You will give your response on a slider. </p>  <p style='text-align:left'>At the end of the experiment, we will ask you some demographic questions. The experiment will take less than two minutes.</p>  <p style='text-align:left' font size=""1"">By clicking on the button below you agree to participate in the experiment, which is conducted by language researchers. You may withdraw at any time. The data collected will be anonymous and confidential. If you have any questions, you may contact the experimenters through Prolific's platform.</p>",0,html-button-response,0,12104,0.0-0.0,NA,NA,7e134872-e4f3-4bc5-b191-27a5385f0d07,2024-03-13 13:00:05 CET
41373,"Please read this text: <br><br><b>Sue runs a fitness club. She’s trying to evaluate how well her new assistant, Cole, knows her clients, who are at all levels of fitness. Sue’s business partner tells her what Cole said about Jackson, who is obese:<em> ""Cole doesn't think that Jackson ran ten miles.""</b></em><br> <br> <br> <br> Given what you have read above, how likely is it that Jackson ran ten miles?",39,html-slider-response,1,53479,0.0-1.0-0.0,50,NA,7e134872-e4f3-4bc5-b191-27a5385f0d07,2024-03-13 13:00:05 CET
26727,NA,"{""P0_Q0"":null,""age"":""48"",""gender"":""male"",""language"":""yes"",""amE"":""yes"",""edu"":""graduated college"",""comments"":""n/a""}",survey,2,80292,0.0-2.0,NA,[],7e134872-e4f3-4bc5-b191-27a5385f0d07,2024-03-13 13:00:05 CET
9839,"<h3>Instructions</h3>  <p style='text-align:left'>In this experiment, you will read a short text and we will ask you a question about what you have read. You will give your response on a slider. </p>  <p style='text-align:left'>At the end of the experiment, we will ask you some demographic questions. The experiment will take less than two minutes.</p>  <p style='text-align:left' font size=""1"">By clicking on the button below you agree to participate in the experiment, which is conducted by language researchers. You may withdraw at any time. The data collected will be anonymous and confidential. If you have any questions, you may contact the experimenters through Prolific's platform.</p>",0,html-button-response,0,9853,0.0-0.0,NA,NA,570c4097-593c-4d9e-933a-8dff57287e93,2024-03-13 13:01:51 CET
30937,"Please read this text: <br><br><b>Sue runs a company that connects language learners with remote teachers who live all over the world. She’s trying to figure out how well her assistant, Cole, knows her remote teachers. Sue’s business partner tells her what Cole said about Charley, who lives in Korea:<em> ""Cole thinks that Charley speaks Spanish.""</b></em><br> <br> <br> <br> Given what you have read above, how likely is it that Charley speaks Spanish?",48,html-slider-response,1,40794,0.0-1.0-0.0,50,NA,570c4097-593c-4d9e-933a-8dff57287e93,2024-03-13 13:01:51 CET
17305,NA,"{""P0_Q0"":null,""age"":""64"",""gender"":"""",""language"":""yes"",""amE"":""yes"",""edu"":""some college"",""comments"":""""}",survey,2,58312,0.0-2.0,NA,[],570c4097-593c-4d9e-933a-8dff57287e93,2024-03-13 13:01:51 CET
8947,"<h3>Instructions</h3>  <p style='text-align:left'>In this experiment, you will read a short text and we will ask you a question about what you have read. You will give your response on a slider. </p>  <p style='text-align:left'>At the end of the experiment, we will ask you some demographic questions. The experiment will take less than two minutes.</p>  <p style='text-align:left' font size=""1"">By clicking on the button below you agree to participate in the experiment, which is conducted by language researchers. You may withdraw at any time. The data collected will be anonymous and confidential. If you have any questions, you may contact the experimenters through Prolific's platform.</p>",0,html-button-response,0,8952,0.0-0.0,NA,NA,28b14ee0-e18c-4ad5-aabc-5b406a157f8b,2024-03-13 13:02:23 CET
28320,"Please read this text: <br><br><b>Sue runs a company that connects language learners with remote teachers who live all over the world. She's putting together a list of the languages spoken by the remote teachers. After consulting her assistant, Cole, who knows the teachers and the languages they speak better than she does, Sue is currently working through the list of teachers to identify who speaks Spanish. When she gets to Charley, who lives in Korea, Sue says to her business partner:<em> ""Cole doesn't know that Charley speaks Spanish.""</b></em><br> <br> <br> <br> Given what you have read above, how likely is it that Charley speaks Spanish?",100,html-slider-response,1,37273,0.0-1.0-0.0,50,NA,28b14ee0-e18c-4ad5-aabc-5b406a157f8b,2024-03-13 13:02:23 CET
13569,NA,"{""P0_Q0"":null,""age"":""30"",""gender"":""female"",""language"":""yes"",""amE"":""yes"",""edu"":""graduated college"",""comments"":""""}",survey,2,50881,0.0-2.0,NA,[],28b14ee0-e18c-4ad5-aabc-5b406a157f8b,2024-03-13 13:02:23 CET
1710,"<h3>Instructions</h3>  <p style='text-align:left'>In this experiment, you will read a short text and we will ask you a question about what you have read. You will give your response on a slider. </p>  <p style='text-align:left'>At the end of the experiment, we will ask you some demographic questions. The experiment will take less than two minutes.</p>  <p style='text-align:left' font size=""1"">By clicking on the button below you agree to participate in the experiment, which is conducted by language researchers. You may withdraw at any time. The data collected will be anonymous and confidential. If you have any questions, you may contact the experimenters through Prolific's platform.</p>",0,html-button-response,0,1723,0.0-0.0,NA,NA,f626da07-eb66-4915-8152-5266c1f066da,2024-03-13 13:02:39 CET
18140,"Please read this text: <br><br><b>Sue runs a company that connects language learners with remote teachers who live all over the world. She's putting together a list of the languages spoken by the remote teachers. After consulting her assistant, Cole, who knows the teachers and the languages they speak better than she does, Sue is currently working through the list of teachers to identify who speaks Spanish. When she gets to Charley, who lives in Korea, Sue says to her business partner:<em> ""Cole doesn't think that Charley speaks Spanish.""</b></em><br> <br> <br> <br> Given what you have read above, how likely is it that Charley speaks Spanish?",29,html-slider-response,1,19867,0.0-1.0-0.0,50,NA,f626da07-eb66-4915-8152-5266c1f066da,2024-03-13 13:02:39 CET
14598,NA,"{""P0_Q0"":null,""age"":""39"",""gender"":""female"",""language"":""yes"",""amE"":""yes"",""edu"":""some college"",""comments"":""""}",survey,2,34530,0.0-2.0,NA,[],f626da07-eb66-4915-8152-5266c1f066da,2024-03-13 13:02:39 CET
87145,"<h3>Instructions</h3>  <p style='text-align:left'>In this experiment, you will read a short text and we will ask you a question about what you have read. You will give your response on a slider. </p>  <p style='text-align:left'>At the end of the experiment, we will ask you some demographic questions. The experiment will take less than two minutes.</p>  <p style='text-align:left' font size=""1"">By clicking on the button below you agree to participate in the experiment, which is conducted by language researchers. You may withdraw at any time. The data collected will be anonymous and confidential. If you have any questions, you may contact the experimenters through Prolific's platform.</p>",0,html-button-response,0,87374,0.0-0.0,NA,NA,3bb25d41-658d-4614-aeb0-6c0e6136c257,2024-03-13 13:04:06 CET
33709,"Please read this text: <br><br><b>Sue runs a fitness club. She has special medals for clients that ran ten miles or more over the weekend. After consulting her assistant, Cole, who is better informed about her clients’ activities over the weekend, Sue is currently working through a list of clients, who are at all levels of fitness, to identify who gets a medal. When she gets to Jackson, who is training for a marathon, Sue says to her husband:<em> ""Cole doesn't think that Jackson ran ten miles.""</b></em><br> <br> <br> <br> Given what you have read above, how likely is it that Jackson ran ten miles?",30,html-slider-response,1,121089,0.0-1.0-0.0,50,NA,3bb25d41-658d-4614-aeb0-6c0e6136c257,2024-03-13 13:04:06 CET
51654,NA,"{""P0_Q0"":null,""age"":""28"",""gender"":""non-binary"",""language"":""yes"",""amE"":""yes"",""edu"":""graduated college"",""comments"":""Assuming that training for a marathon might include off days""}",survey,2,172889,0.0-2.0,NA,[],3bb25d41-658d-4614-aeb0-6c0e6136c257,2024-03-13 13:04:06 CET
10260,"<h3>Instructions</h3>  <p style='text-align:left'>In this experiment, you will read a short text and we will ask you a question about what you have read. You will give your response on a slider. </p>  <p style='text-align:left'>At the end of the experiment, we will ask you some demographic questions. The experiment will take less than two minutes.</p>  <p style='text-align:left' font size=""1"">By clicking on the button below you agree to participate in the experiment, which is conducted by language researchers. You may withdraw at any time. The data collected will be anonymous and confidential. If you have any questions, you may contact the experimenters through Prolific's platform.</p>",0,html-button-response,0,10280,0.0-0.0,NA,NA,4981056a-76d9-4cbb-ba5d-12431c84e653,2024-03-13 13:05:29 CET
19273,"Please read this text: <br><br><b>Sue runs a fitness club. She’s trying to evaluate how well her new assistant, Cole, knows her clients, who are at all levels of fitness. Sue’s business partner tells her what Cole said about Jackson, who is training for a marathon:<em> ""Cole doesn't know that Jackson ran ten miles.""</b></em><br> <br> <br> <br> Given what you have read above, how likely is it that Jackson ran ten miles?",97,html-slider-response,1,29575,0.0-1.0-0.0,50,NA,4981056a-76d9-4cbb-ba5d-12431c84e653,2024-03-13 13:05:29 CET
30344,NA,"{""P0_Q0"":null,""age"":""37"",""gender"":""female"",""language"":""yes"",""amE"":""yes"",""edu"":""graduated college"",""comments"":""none""}",survey,2,60066,0.0-2.0,NA,[],4981056a-76d9-4cbb-ba5d-12431c84e653,2024-03-13 13:05:29 CET
16836,"<h3>Instructions</h3>  <p style='text-align:left'>In this experiment, you will read a short text and we will ask you a question about what you have read. You will give your response on a slider. </p>  <p style='text-align:left'>At the end of the experiment, we will ask you some demographic questions. The experiment will take less than two minutes.</p>  <p style='text-align:left' font size=""1"">By clicking on the button below you agree to participate in the experiment, which is conducted by language researchers. You may withdraw at any time. The data collected will be anonymous and confidential. If you have any questions, you may contact the experimenters through Prolific's platform.</p>",0,html-button-response,0,16851,0.0-0.0,NA,NA,4146ed5b-4804-4c16-8df4-21308bcf5c03,2024-03-13 13:06:08 CET
64197,"Please read this text: <br><br><b>Sue runs a fitness club. She’s trying to evaluate how well her new assistant, Cole, knows her clients, who are at all levels of fitness. Sue’s business partner tells her what Cole said about Jackson, who is obese:<em> ""Cole knows that Jackson ran ten miles.""</b></em><br> <br> <br> <br> Given what you have read above, how likely is it that Jackson ran ten miles?",0,html-slider-response,1,81056,0.0-1.0-0.0,50,NA,4146ed5b-4804-4c16-8df4-21308bcf5c03,2024-03-13 13:06:08 CET
91905,NA,"{""P0_Q0"":null,""age"":""61"",""gender"":""male"",""language"":""yes"",""amE"":""yes"",""edu"":""some college"",""comments"":""study about perception and bias? Or something completely different.""}",survey,2,173254,0.0-2.0,NA,[],4146ed5b-4804-4c16-8df4-21308bcf5c03,2024-03-13 13:06:08 CET
18567,"<h3>Instructions</h3>  <p style='text-align:left'>In this experiment, you will read a short text and we will ask you a question about what you have read. You will give your response on a slider. </p>  <p style='text-align:left'>At the end of the experiment, we will ask you some demographic questions. The experiment will take less than two minutes.</p>  <p style='text-align:left' font size=""1"">By clicking on the button below you agree to participate in the experiment, which is conducted by language researchers. You may withdraw at any time. The data collected will be anonymous and confidential. If you have any questions, you may contact the experimenters through Prolific's platform.</p>",0,html-button-response,0,18573,0.0-0.0,NA,NA,86bd3df3-0ace-44e4-aaa2-cd5533277cde,2024-03-13 13:06:19 CET
45428,"Please read this text: <br><br><b>Sue runs a fitness club. She’s trying to evaluate how well her new assistant, Cole, knows her clients, who are at all levels of fitness. Sue’s business partner tells her what Cole said about Jackson, who is training for a marathon:<em> ""Cole thinks that Jackson ran ten miles.""</b></em><br> <br> <br> <br> Given what you have read above, how likely is it that Jackson ran ten miles?",68,html-slider-response,1,64006,0.0-1.0-0.0,50,NA,86bd3df3-0ace-44e4-aaa2-cd5533277cde,2024-03-13 13:06:19 CET
49838,NA,"{""P0_Q0"":null,""age"":""36"",""gender"":""female"",""language"":""yes"",""amE"":""yes"",""edu"":""some college"",""comments"":""""}",survey,2,113922,0.0-2.0,NA,[],86bd3df3-0ace-44e4-aaa2-cd5533277cde,2024-03-13 13:06:19 CET
1881,"<h3>Instructions</h3>  <p style='text-align:left'>In this experiment, you will read a short text and we will ask you a question about what you have read. You will give your response on a slider. </p>  <p style='text-align:left'>At the end of the experiment, we will ask you some demographic questions. The experiment will take less than two minutes.</p>  <p style='text-align:left' font size=""1"">By clicking on the button below you agree to participate in the experiment, which is conducted by language researchers. You may withdraw at any time. The data collected will be anonymous and confidential. If you have any questions, you may contact the experimenters through Prolific's platform.</p>",0,html-button-response,0,1887,0.0-0.0,NA,NA,f78ae76e-aed6-481c-8b70-4e711f7ab5bd,2024-03-13 13:06:32 CET
38402,"Please read this text: <br><br><b>Sue runs a company that connects language learners with remote teachers who live all over the world. She's putting together a list of the languages spoken by the remote teachers. After consulting her assistant, Cole, who knows the teachers and the languages they speak better than she does, Sue is currently working through the list of teachers to identify who speaks Spanish. When she gets to Charley, who lives in Korea, Sue says to her business partner:<em> ""Cole doesn't know that Charley speaks Spanish.""</b></em><br> <br> <br> <br> Given what you have read above, how likely is it that Charley speaks Spanish?",85,html-slider-response,1,40291,0.0-1.0-0.0,50,NA,f78ae76e-aed6-481c-8b70-4e711f7ab5bd,2024-03-13 13:06:32 CET
19186,NA,"{""P0_Q0"":null,""age"":""41"",""gender"":""female"",""language"":""yes"",""amE"":""yes"",""edu"":""graduated college"",""comments"":""""}",survey,2,59515,0.0-2.0,NA,[],f78ae76e-aed6-481c-8b70-4e711f7ab5bd,2024-03-13 13:06:32 CET
1432,"<h3>Instructions</h3>  <p style='text-align:left'>In this experiment, you will read a short text and we will ask you a question about what you have read. You will give your response on a slider. </p>  <p style='text-align:left'>At the end of the experiment, we will ask you some demographic questions. The experiment will take less than two minutes.</p>  <p style='text-align:left' font size=""1"">By clicking on the button below you agree to participate in the experiment, which is conducted by language researchers. You may withdraw at any time. The data collected will be anonymous and confidential. If you have any questions, you may contact the experimenters through Prolific's platform.</p>",0,html-button-response,0,1441,0.0-0.0,NA,NA,fde8d79f-d190-4173-aa13-681a609e4859,2024-03-13 13:06:41 CET
17697,"Please read this text: <br><br><b>Sue runs a fitness club. She’s trying to evaluate how well her new assistant, Cole, knows her clients, who are at all levels of fitness. Sue’s business partner tells her what Cole said about Jackson, who is obese:<em> ""Cole doesn't think that Jackson ran ten miles.""</b></em><br> <br> <br> <br> Given what you have read above, how likely is it that Jackson ran ten miles?",16,html-slider-response,1,19143,0.0-1.0-0.0,50,NA,fde8d79f-d190-4173-aa13-681a609e4859,2024-03-13 13:06:41 CET
14427,NA,"{""P0_Q0"":null,""age"":""36"",""gender"":""female"",""language"":""yes"",""amE"":""yes"",""edu"":""hold a higher degree"",""comments"":""""}",survey,2,33635,0.0-2.0,NA,[],fde8d79f-d190-4173-aa13-681a609e4859,2024-03-13 13:06:41 CET
1842,"<h3>Instructions</h3>  <p style='text-align:left'>In this experiment, you will read a short text and we will ask you a question about what you have read. You will give your response on a slider. </p>  <p style='text-align:left'>At the end of the experiment, we will ask you some demographic questions. The experiment will take less than two minutes.</p>  <p style='text-align:left' font size=""1"">By clicking on the button below you agree to participate in the experiment, which is conducted by language researchers. You may withdraw at any time. The data collected will be anonymous and confidential. If you have any questions, you may contact the experimenters through Prolific's platform.</p>",0,html-button-response,0,1857,0.0-0.0,NA,NA,c58a1520-9fdb-497d-90c6-f617d05653fc,2024-03-13 13:07:29 CET
9050,"Please read this text: <br><br><b>Sue runs a company that connects language learners with remote teachers who live all over the world. She's putting together a list of the languages spoken by the remote teachers. Sue is currently working through the list of teachers to identify who speaks Spanish. When she gets to Charley, who lives in Mexico, Sue says to her business partner:<em> ""Charley doesn't speak Spanish.""</b></em><br> <br> <br> <br> Given what you have read above, how likely is it that Charley speaks Spanish?",0,html-slider-response,1,10909,0.0-1.0-0.0,50,NA,c58a1520-9fdb-497d-90c6-f617d05653fc,2024-03-13 13:07:29 CET
10915,NA,"{""P0_Q0"":null,""age"":""41"",""gender"":""female"",""language"":""yes"",""amE"":""yes"",""edu"":""some college"",""comments"":""""}",survey,2,21855,0.0-2.0,NA,[],c58a1520-9fdb-497d-90c6-f617d05653fc,2024-03-13 13:07:29 CET
6012,"<h3>Instructions</h3>  <p style='text-align:left'>In this experiment, you will read a short text and we will ask you a question about what you have read. You will give your response on a slider. </p>  <p style='text-align:left'>At the end of the experiment, we will ask you some demographic questions. The experiment will take less than two minutes.</p>  <p style='text-align:left' font size=""1"">By clicking on the button below you agree to participate in the experiment, which is conducted by language researchers. You may withdraw at any time. The data collected will be anonymous and confidential. If you have any questions, you may contact the experimenters through Prolific's platform.</p>",0,html-button-response,0,6017,0.0-0.0,NA,NA,0990f583-de87-4ba0-be9d-9f778fb2f0f1,2024-03-13 13:07:56 CET
23885,"Please read this text: <br><br><b>Sue runs a fitness club. She has special medals for clients that ran ten miles or more over the weekend. Sue is currently working through a list of clients, who are at all levels of fitness, to identify who gets a medal. When she gets to Jackson, who is obese, Sue says to her husband:<em> ""Jackson ran ten miles.""</b></em><br> <br> <br> <br> Given what you have read above, how likely is it that Jackson ran ten miles?",100,html-slider-response,1,29904,0.0-1.0-0.0,50,NA,0990f583-de87-4ba0-be9d-9f778fb2f0f1,2024-03-13 13:07:56 CET
27610,NA,"{""P0_Q0"":null,""age"":""69"",""gender"":""male"",""language"":""yes"",""amE"":""yes"",""edu"":""hold a higher degree"",""comments"":""""}",survey,2,57543,0.0-2.0,NA,[],0990f583-de87-4ba0-be9d-9f778fb2f0f1,2024-03-13 13:07:56 CET
2164,"<h3>Instructions</h3>  <p style='text-align:left'>In this experiment, you will read a short text and we will ask you a question about what you have read. You will give your response on a slider. </p>  <p style='text-align:left'>At the end of the experiment, we will ask you some demographic questions. The experiment will take less than two minutes.</p>  <p style='text-align:left' font size=""1"">By clicking on the button below you agree to participate in the experiment, which is conducted by language researchers. You may withdraw at any time. The data collected will be anonymous and confidential. If you have any questions, you may contact the experimenters through Prolific's platform.</p>",0,html-button-response,0,2169,0.0-0.0,NA,NA,bfd7e9f2-5ab9-4c34-962c-6e85a3bbead5,2024-03-13 13:08:36 CET
20150,"Please read this text: <br><br><b>Sue runs a fitness club. She’s trying to evaluate how well her new assistant, Cole, knows her clients, who are at all levels of fitness. Sue’s business partner tells her what Cole said about Jackson, who is training for a marathon:<em> ""Cole knows that Jackson ran ten miles.""</b></em><br> <br> <br> <br> Given what you have read above, how likely is it that Jackson ran ten miles?",86,html-slider-response,1,22321,0.0-1.0-0.0,50,NA,bfd7e9f2-5ab9-4c34-962c-6e85a3bbead5,2024-03-13 13:08:36 CET
15683,NA,"{""P0_Q0"":null,""age"":""43"",""gender"":""female"",""language"":""yes"",""amE"":""yes"",""edu"":""some college"",""comments"":""""}",survey,2,38039,0.0-2.0,NA,[],bfd7e9f2-5ab9-4c34-962c-6e85a3bbead5,2024-03-13 13:08:36 CET
2768,"<h3>Instructions</h3>  <p style='text-align:left'>In this experiment, you will read a short text and we will ask you a question about what you have read. You will give your response on a slider. </p>  <p style='text-align:left'>At the end of the experiment, we will ask you some demographic questions. The experiment will take less than two minutes.</p>  <p style='text-align:left' font size=""1"">By clicking on the button below you agree to participate in the experiment, which is conducted by language researchers. You may withdraw at any time. The data collected will be anonymous and confidential. If you have any questions, you may contact the experimenters through Prolific's platform.</p>",0,html-button-response,0,2775,0.0-0.0,NA,NA,23c51885-1e93-4746-a219-def659aee0a7,2024-03-13 13:10:20 CET
33198,"Please read this text: <br><br><b>Sue runs a company that connects language learners with remote teachers who live all over the world. She’s trying to figure out how well her assistant, Cole, knows her remote teachers. Sue’s business partner tells her what Cole said about Charley, who lives in Korea:<em> ""Cole doesn't know that Charley speaks Spanish.""</b></em><br> <br> <br> <br> Given what you have read above, how likely is it that Charley speaks Spanish?",88,html-slider-response,1,35974,0.0-1.0-0.0,50,NA,23c51885-1e93-4746-a219-def659aee0a7,2024-03-13 13:10:20 CET
17961,NA,"{""P0_Q0"":null,""age"":""57"",""gender"":""female"",""language"":""yes"",""amE"":""yes"",""edu"":""some college"",""comments"":""""}",survey,2,53980,0.0-2.0,NA,[],23c51885-1e93-4746-a219-def659aee0a7,2024-03-13 13:10:20 CET
2867,"<h3>Instructions</h3>  <p style='text-align:left'>In this experiment, you will read a short text and we will ask you a question about what you have read. You will give your response on a slider. </p>  <p style='text-align:left'>At the end of the experiment, we will ask you some demographic questions. The experiment will take less than two minutes.</p>  <p style='text-align:left' font size=""1"">By clicking on the button below you agree to participate in the experiment, which is conducted by language researchers. You may withdraw at any time. The data collected will be anonymous and confidential. If you have any questions, you may contact the experimenters through Prolific's platform.</p>",0,html-button-response,0,2875,0.0-0.0,NA,NA,f41b4415-c280-4e80-af00-cbcca92b71c0,2024-03-13 13:11:08 CET
17511,"Please read this text: <br><br><b>Sue runs a fitness club. She has special medals for clients that ran ten miles or more over the weekend. Sue is currently working through a list of clients, who are at all levels of fitness, to identify who gets a medal. When she gets to Jackson, who is training for a marathon, Sue says to her husband:<em> ""Jackson didn't run ten miles.""</b></em><br> <br> <br> <br> Given what you have read above, how likely is it that Jackson ran ten miles?",10,html-slider-response,1,20387,0.0-1.0-0.0,50,NA,f41b4415-c280-4e80-af00-cbcca92b71c0,2024-03-13 13:11:08 CET
38843,NA,"{""P0_Q0"":null,""age"":""33"",""gender"":""male"",""language"":""yes"",""amE"":""yes"",""edu"":""some college"",""comments"":""Unless shes lying because she doesnt like him or because she did her numbers wrong, he probably didnt run 10 miles ""}",survey,2,59273,0.0-2.0,NA,[],f41b4415-c280-4e80-af00-cbcca92b71c0,2024-03-13 13:11:08 CET
1666,"<h3>Instructions</h3>  <p style='text-align:left'>In this experiment, you will read a short text and we will ask you a question about what you have read. You will give your response on a slider. </p>  <p style='text-align:left'>At the end of the experiment, we will ask you some demographic questions. The experiment will take less than two minutes.</p>  <p style='text-align:left' font size=""1"">By clicking on the button below you agree to participate in the experiment, which is conducted by language researchers. You may withdraw at any time. The data collected will be anonymous and confidential. If you have any questions, you may contact the experimenters through Prolific's platform.</p>",0,html-button-response,0,1673,0.0-0.0,NA,NA,924e3325-d77f-4196-a6f0-6fe51cc339af,2024-03-13 13:11:20 CET
103863,"Please read this text: <br><br><b>Sue runs a fitness club. She’s trying to evaluate how well her new assistant, Cole, knows her clients, who are at all levels of fitness. Sue’s business partner tells her what Cole said about Jackson, who is training for a marathon:<em> ""Cole doesn't know that Jackson ran ten miles.""</b></em><br> <br> <br> <br> Given what you have read above, how likely is it that Jackson ran ten miles?",100,html-slider-response,1,105536,0.0-1.0-0.0,50,NA,924e3325-d77f-4196-a6f0-6fe51cc339af,2024-03-13 13:11:20 CET
10964,NA,"{""P0_Q0"":null,""age"":""34"",""gender"":""male"",""language"":""yes"",""amE"":""yes"",""edu"":""graduated high school"",""comments"":""""}",survey,2,116531,0.0-2.0,NA,[],924e3325-d77f-4196-a6f0-6fe51cc339af,2024-03-13 13:11:20 CET
11607,"<h3>Instructions</h3>  <p style='text-align:left'>In this experiment, you will read a short text and we will ask you a question about what you have read. You will give your response on a slider. </p>  <p style='text-align:left'>At the end of the experiment, we will ask you some demographic questions. The experiment will take less than two minutes.</p>  <p style='text-align:left' font size=""1"">By clicking on the button below you agree to participate in the experiment, which is conducted by language researchers. You may withdraw at any time. The data collected will be anonymous and confidential. If you have any questions, you may contact the experimenters through Prolific's platform.</p>",0,html-button-response,0,11600,0.0-0.0,NA,NA,b0294aa7-53d5-4aa6-b5ab-5104a87e6214,2024-03-13 13:11:32 CET
18951,"Please read this text: <br><br><b>Sue runs a company that connects language learners with remote teachers who live all over the world. She’s trying to figure out how well her assistant, Cole, knows her remote teachers. Sue’s business partner tells her what Cole said about Charley, who lives in Korea:<em> ""Cole doesn't know that Charley speaks Spanish.""</b></em><br> <br> <br> <br> Given what you have read above, how likely is it that Charley speaks Spanish?",86,html-slider-response,1,30553,0.0-1.0-0.0,50,NA,b0294aa7-53d5-4aa6-b5ab-5104a87e6214,2024-03-13 13:11:32 CET
30209,NA,"{""P0_Q0"":null,""age"":""46"",""gender"":""female"",""language"":""yes"",""amE"":""yes"",""edu"":""hold a higher degree"",""comments"":""""}",survey,2,60855,0.0-2.0,NA,[],b0294aa7-53d5-4aa6-b5ab-5104a87e6214,2024-03-13 13:11:32 CET
2646,"<h3>Instructions</h3>  <p style='text-align:left'>In this experiment, you will read a short text and we will ask you a question about what you have read. You will give your response on a slider. </p>  <p style='text-align:left'>At the end of the experiment, we will ask you some demographic questions. The experiment will take less than two minutes.</p>  <p style='text-align:left' font size=""1"">By clicking on the button below you agree to participate in the experiment, which is conducted by language researchers. You may withdraw at any time. The data collected will be anonymous and confidential. If you have any questions, you may contact the experimenters through Prolific's platform.</p>",0,html-button-response,0,2649,0.0-0.0,NA,NA,d9b523a3-dd5d-4f81-9e93-2a6ad6a87fd1,2024-03-13 13:12:17 CET
27982,"Please read this text: <br><br><b>Sue runs a fitness club. She’s trying to evaluate how well her new assistant, Cole, knows her clients, who are at all levels of fitness. Sue’s business partner tells her what Cole said about Jackson, who is obese:<em> ""Cole doesn't know that Jackson ran ten miles.""</b></em><br> <br> <br> <br> Given what you have read above, how likely is it that Jackson ran ten miles?",13,html-slider-response,1,30634,0.0-1.0-0.0,50,NA,d9b523a3-dd5d-4f81-9e93-2a6ad6a87fd1,2024-03-13 13:12:17 CET
90734,NA,"{""P0_Q0"":null,""age"":""32"",""gender"":""male"",""language"":""yes"",""amE"":""yes"",""edu"":""graduated college"",""comments"":""""}",survey,2,121438,0.0-2.0,NA,[],d9b523a3-dd5d-4f81-9e93-2a6ad6a87fd1,2024-03-13 13:12:17 CET
11330,"<h3>Instructions</h3>  <p style='text-align:left'>In this experiment, you will read a short text and we will ask you a question about what you have read. You will give your response on a slider. </p>  <p style='text-align:left'>At the end of the experiment, we will ask you some demographic questions. The experiment will take less than two minutes.</p>  <p style='text-align:left' font size=""1"">By clicking on the button below you agree to participate in the experiment, which is conducted by language researchers. You may withdraw at any time. The data collected will be anonymous and confidential. If you have any questions, you may contact the experimenters through Prolific's platform.</p>",0,html-button-response,0,11340,0.0-0.0,NA,NA,48bf2b70-14dd-49e2-af43-ba9cc8ede772,2024-03-13 13:12:38 CET
51743,"Please read this text: <br><br><b>Sue runs a fitness club. She has special medals for clients that ran ten miles or more over the weekend. After consulting her assistant, Cole, who is better informed about her clients’ activities over the weekend, Sue is currently working through a list of clients, who are at all levels of fitness, to identify who gets a medal. When she gets to Jackson, who is obese, Sue says to her husband:<em> ""Cole doesn't think that Jackson ran ten miles.""</b></em><br> <br> <br> <br> Given what you have read above, how likely is it that Jackson ran ten miles?",40,html-slider-response,1,63084,0.0-1.0-0.0,50,NA,48bf2b70-14dd-49e2-af43-ba9cc8ede772,2024-03-13 13:12:38 CET
16962,NA,"{""P0_Q0"":null,""age"":""38"",""gender"":""female"",""language"":""yes"",""amE"":""yes"",""edu"":""graduated college"",""comments"":""""}",survey,2,80104,0.0-2.0,NA,[],48bf2b70-14dd-49e2-af43-ba9cc8ede772,2024-03-13 13:12:38 CET
1543,"<h3>Instructions</h3>  <p style='text-align:left'>In this experiment, you will read a short text and we will ask you a question about what you have read. You will give your response on a slider. </p>  <p style='text-align:left'>At the end of the experiment, we will ask you some demographic questions. The experiment will take less than two minutes.</p>  <p style='text-align:left' font size=""1"">By clicking on the button below you agree to participate in the experiment, which is conducted by language researchers. You may withdraw at any time. The data collected will be anonymous and confidential. If you have any questions, you may contact the experimenters through Prolific's platform.</p>",0,html-button-response,0,1547,0.0-0.0,NA,NA,78d5b14e-9dbc-4c9e-987a-12461d384dc8,2024-03-13 13:12:56 CET
164386,"Please read this text: <br><br><b>Sue runs a company that connects language learners with remote teachers who live all over the world. She's putting together a list of the languages spoken by the remote teachers. After consulting her assistant, Cole, who knows the teachers and the languages they speak better than she does, Sue is currently working through the list of teachers to identify who speaks Spanish. When she gets to Charley, who lives in Mexico, Sue says to her business partner:<em> ""Cole thinks that Charley speaks Spanish.""</b></em><br> <br> <br> <br> Given what you have read above, how likely is it that Charley speaks Spanish?",81,html-slider-response,1,165935,0.0-1.0-0.0,50,NA,78d5b14e-9dbc-4c9e-987a-12461d384dc8,2024-03-13 13:12:56 CET
13429,NA,"{""P0_Q0"":null,""age"":""57"",""gender"":""male"",""language"":""yes"",""amE"":""yes"",""edu"":""graduated college"",""comments"":""""}",survey,2,179407,0.0-2.0,NA,[],78d5b14e-9dbc-4c9e-987a-12461d384dc8,2024-03-13 13:12:56 CET
8506,"<h3>Instructions</h3>  <p style='text-align:left'>In this experiment, you will read a short text and we will ask you a question about what you have read. You will give your response on a slider. </p>  <p style='text-align:left'>At the end of the experiment, we will ask you some demographic questions. The experiment will take less than two minutes.</p>  <p style='text-align:left' font size=""1"">By clicking on the button below you agree to participate in the experiment, which is conducted by language researchers. You may withdraw at any time. The data collected will be anonymous and confidential. If you have any questions, you may contact the experimenters through Prolific's platform.</p>",0,html-button-response,0,8527,0.0-0.0,NA,NA,aed01e49-e26f-48a1-8a9d-259c891827f8,2024-03-13 13:13:13 CET
87134,"Please read this text: <br><br><b>Sue runs a company that connects language learners with remote teachers who live all over the world. She’s trying to figure out how well her assistant, Cole, knows her remote teachers. Sue’s business partner tells her what Cole said about Charley, who lives in Korea:<em> ""Cole thinks that Charley speaks Spanish.""</b></em><br> <br> <br> <br> Given what you have read above, how likely is it that Charley speaks Spanish?",50,html-slider-response,1,95667,0.0-1.0-0.0,50,NA,aed01e49-e26f-48a1-8a9d-259c891827f8,2024-03-13 13:13:13 CET
21185,NA,"{""P0_Q0"":null,""age"":""61"",""gender"":""female"",""language"":""yes"",""amE"":""yes"",""edu"":""graduated high school"",""comments"":""""}",survey,2,117047,0.0-2.0,NA,[],aed01e49-e26f-48a1-8a9d-259c891827f8,2024-03-13 13:13:13 CET
1871,"<h3>Instructions</h3>  <p style='text-align:left'>In this experiment, you will read a short text and we will ask you a question about what you have read. You will give your response on a slider. </p>  <p style='text-align:left'>At the end of the experiment, we will ask you some demographic questions. The experiment will take less than two minutes.</p>  <p style='text-align:left' font size=""1"">By clicking on the button below you agree to participate in the experiment, which is conducted by language researchers. You may withdraw at any time. The data collected will be anonymous and confidential. If you have any questions, you may contact the experimenters through Prolific's platform.</p>",0,html-button-response,0,1889,0.0-0.0,NA,NA,f8e64000-8f9e-4ecb-a409-6cfbda6e88a8,2024-03-13 13:13:15 CET
27581,"Please read this text: <br><br><b>Sue runs a fitness club. She’s trying to evaluate how well her new assistant, Cole, knows her clients, who are at all levels of fitness. Sue’s business partner tells her what Cole said about Jackson, who is obese:<em> ""Cole thinks that Jackson ran ten miles.""</b></em><br> <br> <br> <br> Given what you have read above, how likely is it that Jackson ran ten miles?",58,html-slider-response,1,29472,0.0-1.0-0.0,50,NA,f8e64000-8f9e-4ecb-a409-6cfbda6e88a8,2024-03-13 13:13:15 CET
11553,NA,"{""P0_Q0"":null,""age"":""39"",""gender"":""male"",""language"":""yes"",""amE"":""yes"",""edu"":""some college"",""comments"":""""}",survey,2,41091,0.0-2.0,NA,[],f8e64000-8f9e-4ecb-a409-6cfbda6e88a8,2024-03-13 13:13:15 CET
10258,"<h3>Instructions</h3>  <p style='text-align:left'>In this experiment, you will read a short text and we will ask you a question about what you have read. You will give your response on a slider. </p>  <p style='text-align:left'>At the end of the experiment, we will ask you some demographic questions. The experiment will take less than two minutes.</p>  <p style='text-align:left' font size=""1"">By clicking on the button below you agree to participate in the experiment, which is conducted by language researchers. You may withdraw at any time. The data collected will be anonymous and confidential. If you have any questions, you may contact the experimenters through Prolific's platform.</p>",0,html-button-response,0,10278,0.0-0.0,NA,NA,7285baab-ba13-49a9-97ec-27c670fa175a,2024-03-13 13:13:34 CET
19456,"Please read this text: <br><br><b>Sue runs a fitness club. She’s trying to evaluate how well her new assistant, Cole, knows her clients, who are at all levels of fitness. Sue’s business partner tells her what Cole said about Jackson, who is training for a marathon:<em> ""Cole knows that Jackson ran ten miles.""</b></em><br> <br> <br> <br> Given what you have read above, how likely is it that Jackson ran ten miles?",100,html-slider-response,1,29743,0.0-1.0-0.0,50,NA,7285baab-ba13-49a9-97ec-27c670fa175a,2024-03-13 13:13:34 CET
12189,NA,"{""P0_Q0"":null,""age"":""45"",""gender"":""male"",""language"":""yes"",""amE"":""yes"",""edu"":""some college"",""comments"":""""}",survey,2,42182,0.0-2.0,NA,[],7285baab-ba13-49a9-97ec-27c670fa175a,2024-03-13 13:13:34 CET
6978,"<h3>Instructions</h3>  <p style='text-align:left'>In this experiment, you will read a short text and we will ask you a question about what you have read. You will give your response on a slider. </p>  <p style='text-align:left'>At the end of the experiment, we will ask you some demographic questions. The experiment will take less than two minutes.</p>  <p style='text-align:left' font size=""1"">By clicking on the button below you agree to participate in the experiment, which is conducted by language researchers. You may withdraw at any time. The data collected will be anonymous and confidential. If you have any questions, you may contact the experimenters through Prolific's platform.</p>",0,html-button-response,0,7668,0.0-0.0,NA,NA,ff75b71e-506c-4cb5-93c3-c95bcadb428b,2024-03-13 13:13:53 CET
24281,"Please read this text: <br><br><b>Sue runs a fitness club. She has special medals for clients that ran ten miles or more over the weekend. Sue is currently working through a list of clients, who are at all levels of fitness, to identify who gets a medal. When she gets to Jackson, who is training for a marathon, Sue says to her husband:<em> ""Jackson didn't run ten miles.""</b></em><br> <br> <br> <br> Given what you have read above, how likely is it that Jackson ran ten miles?",0,html-slider-response,1,32633,0.0-1.0-0.0,50,NA,ff75b71e-506c-4cb5-93c3-c95bcadb428b,2024-03-13 13:13:53 CET
33013,NA,"{""P0_Q0"":null,""age"":""50"",""gender"":""male"",""language"":""yes"",""amE"":""yes"",""edu"":""some college"",""comments"":""""}",survey,2,67250,0.0-2.0,NA,[],ff75b71e-506c-4cb5-93c3-c95bcadb428b,2024-03-13 13:13:53 CET
8687,"<h3>Instructions</h3>  <p style='text-align:left'>In this experiment, you will read a short text and we will ask you a question about what you have read. You will give your response on a slider. </p>  <p style='text-align:left'>At the end of the experiment, we will ask you some demographic questions. The experiment will take less than two minutes.</p>  <p style='text-align:left' font size=""1"">By clicking on the button below you agree to participate in the experiment, which is conducted by language researchers. You may withdraw at any time. The data collected will be anonymous and confidential. If you have any questions, you may contact the experimenters through Prolific's platform.</p>",0,html-button-response,0,8693,0.0-0.0,NA,NA,d4ed0d5e-d850-4e07-95b0-485a19da35ae,2024-03-13 13:14:18 CET
44812,"Please read this text: <br><br><b>Sue runs a company that connects language learners with remote teachers who live all over the world. She's putting together a list of the languages spoken by the remote teachers. After consulting her assistant, Cole, who knows the teachers and the languages they speak better than she does, Sue is currently working through the list of teachers to identify who speaks Spanish. When she gets to Charley, who lives in Korea, Sue says to her business partner:<em> ""Cole doesn't know that Charley speaks Spanish.""</b></em><br> <br> <br> <br> Given what you have read above, how likely is it that Charley speaks Spanish?",34,html-slider-response,1,53506,0.0-1.0-0.0,50,NA,d4ed0d5e-d850-4e07-95b0-485a19da35ae,2024-03-13 13:14:18 CET
16841,NA,"{""P0_Q0"":null,""age"":""33"",""gender"":""male"",""language"":""yes"",""amE"":""yes"",""edu"":""graduated college"",""comments"":""""}",survey,2,70380,0.0-2.0,NA,[],d4ed0d5e-d850-4e07-95b0-485a19da35ae,2024-03-13 13:14:18 CET
2476,"<h3>Instructions</h3>  <p style='text-align:left'>In this experiment, you will read a short text and we will ask you a question about what you have read. You will give your response on a slider. </p>  <p style='text-align:left'>At the end of the experiment, we will ask you some demographic questions. The experiment will take less than two minutes.</p>  <p style='text-align:left' font size=""1"">By clicking on the button below you agree to participate in the experiment, which is conducted by language researchers. You may withdraw at any time. The data collected will be anonymous and confidential. If you have any questions, you may contact the experimenters through Prolific's platform.</p>",0,html-button-response,0,2480,0.0-0.0,NA,NA,9936a8cd-6c54-4816-9549-f29e5906660b,2024-03-13 13:14:34 CET
33588,"Please read this text: <br><br><b>Sue runs a company that connects language learners with remote teachers who live all over the world. She’s trying to figure out how well her assistant, Cole, knows her remote teachers. Sue’s business partner tells her what Cole said about Charley, who lives in Korea:<em> ""Cole thinks that Charley speaks Spanish.""</b></em><br> <br> <br> <br> Given what you have read above, how likely is it that Charley speaks Spanish?",34,html-slider-response,1,36073,0.0-1.0-0.0,50,NA,9936a8cd-6c54-4816-9549-f29e5906660b,2024-03-13 13:14:34 CET
18389,NA,"{""P0_Q0"":null,""age"":""46"",""gender"":""male"",""language"":""yes"",""amE"":""yes"",""edu"":""some college"",""comments"":""""}",survey,2,54507,0.0-2.0,NA,[],9936a8cd-6c54-4816-9549-f29e5906660b,2024-03-13 13:14:34 CET
17400,"<h3>Instructions</h3>  <p style='text-align:left'>In this experiment, you will read a short text and we will ask you a question about what you have read. You will give your response on a slider. </p>  <p style='text-align:left'>At the end of the experiment, we will ask you some demographic questions. The experiment will take less than two minutes.</p>  <p style='text-align:left' font size=""1"">By clicking on the button below you agree to participate in the experiment, which is conducted by language researchers. You may withdraw at any time. The data collected will be anonymous and confidential. If you have any questions, you may contact the experimenters through Prolific's platform.</p>",0,html-button-response,0,17406,0.0-0.0,NA,NA,826b095e-9d27-4cf1-82e6-908044263b79,2024-03-13 13:14:37 CET
105257,"Please read this text: <br><br><b>Sue runs a company that connects language learners with remote teachers who live all over the world. She’s trying to figure out how well her assistant, Cole, knows her remote teachers. Sue’s business partner tells her what Cole said about Charley, who lives in Mexico:<em> ""Cole doesn't know that Charley speaks Spanish.""</b></em><br> <br> <br> <br> Given what you have read above, how likely is it that Charley speaks Spanish?",100,html-slider-response,1,122664,0.0-1.0-0.0,50,NA,826b095e-9d27-4cf1-82e6-908044263b79,2024-03-13 13:14:37 CET
26334,NA,"{""P0_Q0"":null,""age"":""52"",""gender"":""female"",""language"":""yes"",""amE"":""yes"",""edu"":""graduated college"",""comments"":""N/A""}",survey,2,149036,0.0-2.0,NA,[],826b095e-9d27-4cf1-82e6-908044263b79,2024-03-13 13:14:37 CET
8527,"<h3>Instructions</h3>  <p style='text-align:left'>In this experiment, you will read a short text and we will ask you a question about what you have read. You will give your response on a slider. </p>  <p style='text-align:left'>At the end of the experiment, we will ask you some demographic questions. The experiment will take less than two minutes.</p>  <p style='text-align:left' font size=""1"">By clicking on the button below you agree to participate in the experiment, which is conducted by language researchers. You may withdraw at any time. The data collected will be anonymous and confidential. If you have any questions, you may contact the experimenters through Prolific's platform.</p>",0,html-button-response,0,8532,0.0-0.0,NA,NA,58459529-5e23-4905-bcc7-1788c7056119,2024-03-13 13:15:20 CET
56048,"Please read this text: <br><br><b>Sue runs a company that connects language learners with remote teachers who live all over the world. She's putting together a list of the languages spoken by the remote teachers. After consulting her assistant, Cole, who knows the teachers and the languages they speak better than she does, Sue is currently working through the list of teachers to identify who speaks Spanish. When she gets to Charley, who lives in Korea, Sue says to her business partner:<em> ""Cole knows that Charley speaks Spanish.""</b></em><br> <br> <br> <br> Given what you have read above, how likely is it that Charley speaks Spanish?",100,html-slider-response,1,64581,0.0-1.0-0.0,50,NA,58459529-5e23-4905-bcc7-1788c7056119,2024-03-13 13:15:20 CET
30325,NA,"{""P0_Q0"":null,""age"":""46"",""gender"":""female"",""language"":""yes"",""amE"":""yes"",""edu"":""graduated college"",""comments"":""This study was clear - no issues.""}",survey,2,95007,0.0-2.0,NA,[],58459529-5e23-4905-bcc7-1788c7056119,2024-03-13 13:15:20 CET
