success,timeout,failed_images,failed_audio,failed_video,trial_type,trial_index,time_elapsed,internal_node_id,condition,rt,stimulus,response,question_order,accuracy,participant_id,ctime
TRUE,FALSE,[],[],[],preload,0,435,0.0-0.0,"{""contextPart1"":""Sue runs a fitness club. She’s currently working through a list of her clients — Kate, Tom, Jackson, Tatiana, and Riccardo —  to identify who ran ten miles over the weekend. She occasionally consults her assistant Cole, who knows some clients better. Here is Sue's list:"",""contextPart2"":""Next up, she wants to record in the list whether <b>JACKSON</b> ran ten miles. Sue says to her business partner:"",""utterance"":""Cole doesn't know that Jackson ran ten miles"",""questionFIRST"":""Given what you have read above, how likely is it that Jackson ran ten miles?"",""questionSECOND"":""Given what you have read above, how likely is it that Cole believes that Jackson ran ten miles?"",""qud"":""ai"",""content"":""jackson"",""image"":""jackson-ai""}",NA,NA,NA,NA,NA,d2c5788a-8da2-4482-aacf-60df6be09014,2024-03-28 14:14:30 CET
NA,NA,NA,NA,NA,html-button-response,1,21412,0.0-1.0,"{""contextPart1"":""Sue runs a fitness club. She’s currently working through a list of her clients — Kate, Tom, Jackson, Tatiana, and Riccardo —  to identify who ran ten miles over the weekend. She occasionally consults her assistant Cole, who knows some clients better. Here is Sue's list:"",""contextPart2"":""Next up, she wants to record in the list whether <b>JACKSON</b> ran ten miles. Sue says to her business partner:"",""utterance"":""Cole doesn't know that Jackson ran ten miles"",""questionFIRST"":""Given what you have read above, how likely is it that Jackson ran ten miles?"",""questionSECOND"":""Given what you have read above, how likely is it that Cole believes that Jackson ran ten miles?"",""qud"":""ai"",""content"":""jackson"",""image"":""jackson-ai""}",20975,"<h3>Instructions</h3>  <p style='text-align:left'>In this experiment, you will read a short text and see an image. We will ask you two questions about what you have read. You will give your responses on a slider. </p>  <p style='text-align:left'>At the end of the experiment, we will ask you some demographic questions. The experiment will take less than two minutes.</p>  <p style='text-align:left' font size=""1"">By clicking on the button below you agree to participate in the experiment, which is conducted by language researchers. You may withdraw at any time. The data collected will be anonymous and confidential. If you have any questions, you may contact the experimenters through Prolific's platform.</p>",0,NA,NA,d2c5788a-8da2-4482-aacf-60df6be09014,2024-03-28 14:14:30 CET
NA,NA,NA,NA,NA,multiple-slider,2,59543,0.0-2.0-0.0,"{""contextPart1"":""Sue runs a fitness club. She’s currently working through a list of her clients — Kate, Tom, Jackson, Tatiana, and Riccardo —  to identify who ran ten miles over the weekend. She occasionally consults her assistant Cole, who knows some clients better. Here is Sue's list:"",""contextPart2"":""Next up, she wants to record in the list whether <b>JACKSON</b> ran ten miles. Sue says to her business partner:"",""utterance"":""Cole doesn't know that Jackson ran ten miles"",""questionFIRST"":""Given what you have read above, how likely is it that Jackson ran ten miles?"",""questionSECOND"":""Given what you have read above, how likely is it that Cole believes that Jackson ran ten miles?"",""qud"":""ai"",""content"":""jackson"",""image"":""jackson-ai""}",38129,NA,"{""stimFIRST"":49,""stimSECOND"":50}","[0,1]",NA,d2c5788a-8da2-4482-aacf-60df6be09014,2024-03-28 14:14:30 CET
NA,NA,NA,NA,NA,survey,3,74008,0.0-3.0,"{""contextPart1"":""Sue runs a fitness club. She’s currently working through a list of her clients — Kate, Tom, Jackson, Tatiana, and Riccardo —  to identify who ran ten miles over the weekend. She occasionally consults her assistant Cole, who knows some clients better. Here is Sue's list:"",""contextPart2"":""Next up, she wants to record in the list whether <b>JACKSON</b> ran ten miles. Sue says to her business partner:"",""utterance"":""Cole doesn't know that Jackson ran ten miles"",""questionFIRST"":""Given what you have read above, how likely is it that Jackson ran ten miles?"",""questionSECOND"":""Given what you have read above, how likely is it that Cole believes that Jackson ran ten miles?"",""qud"":""ai"",""content"":""jackson"",""image"":""jackson-ai""}",14423,NA,"{""P0_Q0"":null,""age"":""22"",""gender"":""male"",""language"":""yes"",""amE"":""yes"",""edu"":""some college"",""comments"":""""}",NA,[],d2c5788a-8da2-4482-aacf-60df6be09014,2024-03-28 14:14:30 CET
TRUE,FALSE,[],[],[],preload,0,317,0.0-0.0,"{""contextPart1"":""Sue runs a fitness club. She’s currently working through a list of her clients — Kate, Tom, Jackson, Tatiana, and Riccardo —  to identify who ran ten miles over the weekend. She occasionally consults her assistant Cole, who knows some clients better. Here is Sue's list:"",""contextPart2"":""Next up, she wants to record in the list whether <b>JACKSON</b> ran ten miles. Sue says to her business partner:"",""utterance"":""Cole doesn't think that Jackson ran ten miles"",""questionFIRST"":""Given what you have read above, how likely is it that Jackson ran ten miles?"",""questionSECOND"":""Given what you have read above, how likely is it that Cole believes that Jackson ran ten miles?"",""qud"":""ai"",""content"":""jackson"",""image"":""jackson-ai""}",NA,NA,NA,NA,NA,653d5576-edf9-470f-a000-f68a525ceb29,2024-03-28 14:19:05 CET
NA,NA,NA,NA,NA,html-button-response,1,1550,0.0-1.0,"{""contextPart1"":""Sue runs a fitness club. She’s currently working through a list of her clients — Kate, Tom, Jackson, Tatiana, and Riccardo —  to identify who ran ten miles over the weekend. She occasionally consults her assistant Cole, who knows some clients better. Here is Sue's list:"",""contextPart2"":""Next up, she wants to record in the list whether <b>JACKSON</b> ran ten miles. Sue says to her business partner:"",""utterance"":""Cole doesn't think that Jackson ran ten miles"",""questionFIRST"":""Given what you have read above, how likely is it that Jackson ran ten miles?"",""questionSECOND"":""Given what you have read above, how likely is it that Cole believes that Jackson ran ten miles?"",""qud"":""ai"",""content"":""jackson"",""image"":""jackson-ai""}",1232,"<h3>Instructions</h3>  <p style='text-align:left'>In this experiment, you will read a short text and see an image. We will ask you two questions about what you have read. You will give your responses on a slider. </p>  <p style='text-align:left'>At the end of the experiment, we will ask you some demographic questions. The experiment will take less than two minutes.</p>  <p style='text-align:left' font size=""1"">By clicking on the button below you agree to participate in the experiment, which is conducted by language researchers. You may withdraw at any time. The data collected will be anonymous and confidential. If you have any questions, you may contact the experimenters through Prolific's platform.</p>",0,NA,NA,653d5576-edf9-470f-a000-f68a525ceb29,2024-03-28 14:19:05 CET
NA,NA,NA,NA,NA,multiple-slider,2,48400,0.0-2.0-0.0,"{""contextPart1"":""Sue runs a fitness club. She’s currently working through a list of her clients — Kate, Tom, Jackson, Tatiana, and Riccardo —  to identify who ran ten miles over the weekend. She occasionally consults her assistant Cole, who knows some clients better. Here is Sue's list:"",""contextPart2"":""Next up, she wants to record in the list whether <b>JACKSON</b> ran ten miles. Sue says to her business partner:"",""utterance"":""Cole doesn't think that Jackson ran ten miles"",""questionFIRST"":""Given what you have read above, how likely is it that Jackson ran ten miles?"",""questionSECOND"":""Given what you have read above, how likely is it that Cole believes that Jackson ran ten miles?"",""qud"":""ai"",""content"":""jackson"",""image"":""jackson-ai""}",46844.20000004768,NA,"{""stimFIRST"":19,""stimSECOND"":7}","[0,1]",NA,653d5576-edf9-470f-a000-f68a525ceb29,2024-03-28 14:19:05 CET
NA,NA,NA,NA,NA,survey,3,70642,0.0-3.0,"{""contextPart1"":""Sue runs a fitness club. She’s currently working through a list of her clients — Kate, Tom, Jackson, Tatiana, and Riccardo —  to identify who ran ten miles over the weekend. She occasionally consults her assistant Cole, who knows some clients better. Here is Sue's list:"",""contextPart2"":""Next up, she wants to record in the list whether <b>JACKSON</b> ran ten miles. Sue says to her business partner:"",""utterance"":""Cole doesn't think that Jackson ran ten miles"",""questionFIRST"":""Given what you have read above, how likely is it that Jackson ran ten miles?"",""questionSECOND"":""Given what you have read above, how likely is it that Cole believes that Jackson ran ten miles?"",""qud"":""ai"",""content"":""jackson"",""image"":""jackson-ai""}",22200,NA,"{""P0_Q0"":null,""age"":""58"",""gender"":""female"",""language"":""yes"",""amE"":""yes"",""edu"":""graduated college"",""comments"":""""}",NA,[],653d5576-edf9-470f-a000-f68a525ceb29,2024-03-28 14:19:05 CET
TRUE,FALSE,[],[],[],preload,0,408,0.0-0.0,"{""contextPart1"":""Sue runs a fitness club. She’s currently working through a list of her clients — Kate, Tom, Jackson, Tatiana, and Riccardo —  to identify who ran ten miles over the weekend. She occasionally consults her assistant Cole, who knows some clients better. Here is Sue's list:"",""contextPart2"":""Next up, she wants to record in the list whether <b>JACKSON</b> ran ten miles. Sue says to her business partner:"",""utterance"":""Cole thinks that Jackson ran ten miles"",""questionFIRST"":""Given what you have read above, how likely is it that Jackson ran ten miles?"",""questionSECOND"":""Given what you have read above, how likely is it that Cole believes that Jackson ran ten miles?"",""qud"":""ai"",""content"":""jackson"",""image"":""jackson-ai""}",NA,NA,NA,NA,NA,5251955d-128d-4d7a-ac30-9aebc7655c5a,2024-03-28 14:29:32 CET
NA,NA,NA,NA,NA,html-button-response,1,3028,0.0-1.0,"{""contextPart1"":""Sue runs a fitness club. She’s currently working through a list of her clients — Kate, Tom, Jackson, Tatiana, and Riccardo —  to identify who ran ten miles over the weekend. She occasionally consults her assistant Cole, who knows some clients better. Here is Sue's list:"",""contextPart2"":""Next up, she wants to record in the list whether <b>JACKSON</b> ran ten miles. Sue says to her business partner:"",""utterance"":""Cole thinks that Jackson ran ten miles"",""questionFIRST"":""Given what you have read above, how likely is it that Jackson ran ten miles?"",""questionSECOND"":""Given what you have read above, how likely is it that Cole believes that Jackson ran ten miles?"",""qud"":""ai"",""content"":""jackson"",""image"":""jackson-ai""}",2620,"<h3>Instructions</h3>  <p style='text-align:left'>In this experiment, you will read a short text and see an image. We will ask you two questions about what you have read. You will give your responses on a slider. </p>  <p style='text-align:left'>At the end of the experiment, we will ask you some demographic questions. The experiment will take less than two minutes.</p>  <p style='text-align:left' font size=""1"">By clicking on the button below you agree to participate in the experiment, which is conducted by language researchers. You may withdraw at any time. The data collected will be anonymous and confidential. If you have any questions, you may contact the experimenters through Prolific's platform.</p>",0,NA,NA,5251955d-128d-4d7a-ac30-9aebc7655c5a,2024-03-28 14:29:32 CET
NA,NA,NA,NA,NA,multiple-slider,2,60706,0.0-2.0-0.0,"{""contextPart1"":""Sue runs a fitness club. She’s currently working through a list of her clients — Kate, Tom, Jackson, Tatiana, and Riccardo —  to identify who ran ten miles over the weekend. She occasionally consults her assistant Cole, who knows some clients better. Here is Sue's list:"",""contextPart2"":""Next up, she wants to record in the list whether <b>JACKSON</b> ran ten miles. Sue says to her business partner:"",""utterance"":""Cole thinks that Jackson ran ten miles"",""questionFIRST"":""Given what you have read above, how likely is it that Jackson ran ten miles?"",""questionSECOND"":""Given what you have read above, how likely is it that Cole believes that Jackson ran ten miles?"",""qud"":""ai"",""content"":""jackson"",""image"":""jackson-ai""}",57677.89999985695,NA,"{""stimFIRST"":46,""stimSECOND"":74}","[0,1]",NA,5251955d-128d-4d7a-ac30-9aebc7655c5a,2024-03-28 14:29:32 CET
NA,NA,NA,NA,NA,survey,3,95050,0.0-3.0,"{""contextPart1"":""Sue runs a fitness club. She’s currently working through a list of her clients — Kate, Tom, Jackson, Tatiana, and Riccardo —  to identify who ran ten miles over the weekend. She occasionally consults her assistant Cole, who knows some clients better. Here is Sue's list:"",""contextPart2"":""Next up, she wants to record in the list whether <b>JACKSON</b> ran ten miles. Sue says to her business partner:"",""utterance"":""Cole thinks that Jackson ran ten miles"",""questionFIRST"":""Given what you have read above, how likely is it that Jackson ran ten miles?"",""questionSECOND"":""Given what you have read above, how likely is it that Cole believes that Jackson ran ten miles?"",""qud"":""ai"",""content"":""jackson"",""image"":""jackson-ai""}",34307,NA,"{""P0_Q0"":null,""age"":""58"",""gender"":""female"",""language"":""yes"",""amE"":""yes"",""edu"":""graduated high school"",""comments"":""none at this time""}",NA,[],5251955d-128d-4d7a-ac30-9aebc7655c5a,2024-03-28 14:29:32 CET
TRUE,FALSE,[],[],[],preload,0,801,0.0-0.0,"{""contextPart1"":""Sue runs a fitness club. She’s currently working through a list of her clients — Kate, Tom, Jackson, Tatiana, and Riccardo —  to identify who ran ten miles over the weekend. She occasionally consults her assistant Cole, who knows some clients better. Here is Sue's list:"",""contextPart2"":""Next up, she wants to record in the list whether <b>JACKSON</b> ran ten miles. Sue says to her business partner:"",""utterance"":""Cole thinks that Jackson ran ten miles"",""questionFIRST"":""Given what you have read above, how likely is it that Jackson ran ten miles?"",""questionSECOND"":""Given what you have read above, how likely is it that Cole believes that Jackson ran ten miles?"",""qud"":""ai"",""content"":""jackson"",""image"":""jackson-ai""}",NA,NA,NA,NA,NA,1b4f1b1f-79a8-4dd6-8c68-fe78e56e6150,2024-03-28 14:47:29 CET
NA,NA,NA,NA,NA,html-button-response,1,20262,0.0-1.0,"{""contextPart1"":""Sue runs a fitness club. She’s currently working through a list of her clients — Kate, Tom, Jackson, Tatiana, and Riccardo —  to identify who ran ten miles over the weekend. She occasionally consults her assistant Cole, who knows some clients better. Here is Sue's list:"",""contextPart2"":""Next up, she wants to record in the list whether <b>JACKSON</b> ran ten miles. Sue says to her business partner:"",""utterance"":""Cole thinks that Jackson ran ten miles"",""questionFIRST"":""Given what you have read above, how likely is it that Jackson ran ten miles?"",""questionSECOND"":""Given what you have read above, how likely is it that Cole believes that Jackson ran ten miles?"",""qud"":""ai"",""content"":""jackson"",""image"":""jackson-ai""}",19459,"<h3>Instructions</h3>  <p style='text-align:left'>In this experiment, you will read a short text and see an image. We will ask you two questions about what you have read. You will give your responses on a slider. </p>  <p style='text-align:left'>At the end of the experiment, we will ask you some demographic questions. The experiment will take less than two minutes.</p>  <p style='text-align:left' font size=""1"">By clicking on the button below you agree to participate in the experiment, which is conducted by language researchers. You may withdraw at any time. The data collected will be anonymous and confidential. If you have any questions, you may contact the experimenters through Prolific's platform.</p>",0,NA,NA,1b4f1b1f-79a8-4dd6-8c68-fe78e56e6150,2024-03-28 14:47:29 CET
NA,NA,NA,NA,NA,multiple-slider,2,88363,0.0-2.0-0.0,"{""contextPart1"":""Sue runs a fitness club. She’s currently working through a list of her clients — Kate, Tom, Jackson, Tatiana, and Riccardo —  to identify who ran ten miles over the weekend. She occasionally consults her assistant Cole, who knows some clients better. Here is Sue's list:"",""contextPart2"":""Next up, she wants to record in the list whether <b>JACKSON</b> ran ten miles. Sue says to her business partner:"",""utterance"":""Cole thinks that Jackson ran ten miles"",""questionFIRST"":""Given what you have read above, how likely is it that Jackson ran ten miles?"",""questionSECOND"":""Given what you have read above, how likely is it that Cole believes that Jackson ran ten miles?"",""qud"":""ai"",""content"":""jackson"",""image"":""jackson-ai""}",68098.80000019073,NA,"{""stimFIRST"":82,""stimSECOND"":84}","[0,1]",NA,1b4f1b1f-79a8-4dd6-8c68-fe78e56e6150,2024-03-28 14:47:29 CET
NA,NA,NA,NA,NA,survey,3,131324,0.0-3.0,"{""contextPart1"":""Sue runs a fitness club. She’s currently working through a list of her clients — Kate, Tom, Jackson, Tatiana, and Riccardo —  to identify who ran ten miles over the weekend. She occasionally consults her assistant Cole, who knows some clients better. Here is Sue's list:"",""contextPart2"":""Next up, she wants to record in the list whether <b>JACKSON</b> ran ten miles. Sue says to her business partner:"",""utterance"":""Cole thinks that Jackson ran ten miles"",""questionFIRST"":""Given what you have read above, how likely is it that Jackson ran ten miles?"",""questionSECOND"":""Given what you have read above, how likely is it that Cole believes that Jackson ran ten miles?"",""qud"":""ai"",""content"":""jackson"",""image"":""jackson-ai""}",42905,NA,"{""P0_Q0"":null,""age"":""55"",""gender"":""female"",""language"":""yes"",""amE"":""yes"",""edu"":""graduated high school"",""comments"":""None...Thank you.""}",NA,[],1b4f1b1f-79a8-4dd6-8c68-fe78e56e6150,2024-03-28 14:47:29 CET
TRUE,FALSE,[],[],[],preload,0,334,0.0-0.0,"{""contextPart1"":""Sue runs a fitness club. She’s currently working through a list of her clients — Kate, Tom, Jackson, Tatiana, and Riccardo —  to identify who ran ten miles over the weekend. She occasionally consults her assistant Cole, who knows some clients better. Here is Sue's list:"",""contextPart2"":""Next up, she wants to record in the list whether <b>JACKSON</b> ran ten miles. Sue says to her business partner:"",""utterance"":""Cole knows that Jackson ran ten miles"",""questionFIRST"":""Given what you have read above, how likely is it that Jackson ran ten miles?"",""questionSECOND"":""Given what you have read above, how likely is it that Cole believes that Jackson ran ten miles?"",""qud"":""ai"",""content"":""jackson"",""image"":""jackson-ai""}",NA,NA,NA,NA,NA,1ff38dbf-324a-407d-a43a-7a0b965615c7,2024-03-28 14:47:34 CET
NA,NA,NA,NA,NA,html-button-response,1,20394,0.0-1.0,"{""contextPart1"":""Sue runs a fitness club. She’s currently working through a list of her clients — Kate, Tom, Jackson, Tatiana, and Riccardo —  to identify who ran ten miles over the weekend. She occasionally consults her assistant Cole, who knows some clients better. Here is Sue's list:"",""contextPart2"":""Next up, she wants to record in the list whether <b>JACKSON</b> ran ten miles. Sue says to her business partner:"",""utterance"":""Cole knows that Jackson ran ten miles"",""questionFIRST"":""Given what you have read above, how likely is it that Jackson ran ten miles?"",""questionSECOND"":""Given what you have read above, how likely is it that Cole believes that Jackson ran ten miles?"",""qud"":""ai"",""content"":""jackson"",""image"":""jackson-ai""}",20058,"<h3>Instructions</h3>  <p style='text-align:left'>In this experiment, you will read a short text and see an image. We will ask you two questions about what you have read. You will give your responses on a slider. </p>  <p style='text-align:left'>At the end of the experiment, we will ask you some demographic questions. The experiment will take less than two minutes.</p>  <p style='text-align:left' font size=""1"">By clicking on the button below you agree to participate in the experiment, which is conducted by language researchers. You may withdraw at any time. The data collected will be anonymous and confidential. If you have any questions, you may contact the experimenters through Prolific's platform.</p>",0,NA,NA,1ff38dbf-324a-407d-a43a-7a0b965615c7,2024-03-28 14:47:34 CET
NA,NA,NA,NA,NA,multiple-slider,2,70901,0.0-2.0-0.0,"{""contextPart1"":""Sue runs a fitness club. She’s currently working through a list of her clients — Kate, Tom, Jackson, Tatiana, and Riccardo —  to identify who ran ten miles over the weekend. She occasionally consults her assistant Cole, who knows some clients better. Here is Sue's list:"",""contextPart2"":""Next up, she wants to record in the list whether <b>JACKSON</b> ran ten miles. Sue says to her business partner:"",""utterance"":""Cole knows that Jackson ran ten miles"",""questionFIRST"":""Given what you have read above, how likely is it that Jackson ran ten miles?"",""questionSECOND"":""Given what you have read above, how likely is it that Cole believes that Jackson ran ten miles?"",""qud"":""ai"",""content"":""jackson"",""image"":""jackson-ai""}",50503.200000000186,NA,"{""stimFIRST"":95,""stimSECOND"":97}","[0,1]",NA,1ff38dbf-324a-407d-a43a-7a0b965615c7,2024-03-28 14:47:34 CET
NA,NA,NA,NA,NA,survey,3,99098,0.0-3.0,"{""contextPart1"":""Sue runs a fitness club. She’s currently working through a list of her clients — Kate, Tom, Jackson, Tatiana, and Riccardo —  to identify who ran ten miles over the weekend. She occasionally consults her assistant Cole, who knows some clients better. Here is Sue's list:"",""contextPart2"":""Next up, she wants to record in the list whether <b>JACKSON</b> ran ten miles. Sue says to her business partner:"",""utterance"":""Cole knows that Jackson ran ten miles"",""questionFIRST"":""Given what you have read above, how likely is it that Jackson ran ten miles?"",""questionSECOND"":""Given what you have read above, how likely is it that Cole believes that Jackson ran ten miles?"",""qud"":""ai"",""content"":""jackson"",""image"":""jackson-ai""}",28135,NA,"{""P0_Q0"":null,""age"":""52"",""gender"":""female"",""language"":""yes"",""amE"":""yes"",""edu"":""hold a higher degree"",""comments"":""None""}",NA,[],1ff38dbf-324a-407d-a43a-7a0b965615c7,2024-03-28 14:47:34 CET
TRUE,FALSE,[],[],[],preload,0,293,0.0-0.0,"{""contextPart1"":""Sue runs a fitness club. She’s currently working through a list of her clients — Kate, Tom, Jackson, Tatiana, and Riccardo —  to identify who ran ten miles over the weekend. She occasionally consults her assistant Cole, who knows some clients better. Here is Sue's list:"",""contextPart2"":""Next up, she wants to record in the list whether <b>JACKSON</b> ran ten miles. Sue says to her business partner:"",""utterance"":""Cole doesn't know that Jackson ran ten miles"",""questionFIRST"":""Given what you have read above, how likely is it that Jackson ran ten miles?"",""questionSECOND"":""Given what you have read above, how likely is it that Cole believes that Jackson ran ten miles?"",""qud"":""ai"",""content"":""jackson"",""image"":""jackson-ai""}",NA,NA,NA,NA,NA,b649072d-dc5f-420f-82a2-fe171ef94d28,2024-03-28 14:55:33 CET
NA,NA,NA,NA,NA,html-button-response,1,2229,0.0-1.0,"{""contextPart1"":""Sue runs a fitness club. She’s currently working through a list of her clients — Kate, Tom, Jackson, Tatiana, and Riccardo —  to identify who ran ten miles over the weekend. She occasionally consults her assistant Cole, who knows some clients better. Here is Sue's list:"",""contextPart2"":""Next up, she wants to record in the list whether <b>JACKSON</b> ran ten miles. Sue says to her business partner:"",""utterance"":""Cole doesn't know that Jackson ran ten miles"",""questionFIRST"":""Given what you have read above, how likely is it that Jackson ran ten miles?"",""questionSECOND"":""Given what you have read above, how likely is it that Cole believes that Jackson ran ten miles?"",""qud"":""ai"",""content"":""jackson"",""image"":""jackson-ai""}",1932,"<h3>Instructions</h3>  <p style='text-align:left'>In this experiment, you will read a short text and see an image. We will ask you two questions about what you have read. You will give your responses on a slider. </p>  <p style='text-align:left'>At the end of the experiment, we will ask you some demographic questions. The experiment will take less than two minutes.</p>  <p style='text-align:left' font size=""1"">By clicking on the button below you agree to participate in the experiment, which is conducted by language researchers. You may withdraw at any time. The data collected will be anonymous and confidential. If you have any questions, you may contact the experimenters through Prolific's platform.</p>",0,NA,NA,b649072d-dc5f-420f-82a2-fe171ef94d28,2024-03-28 14:55:33 CET
NA,NA,NA,NA,NA,multiple-slider,2,52265,0.0-2.0-0.0,"{""contextPart1"":""Sue runs a fitness club. She’s currently working through a list of her clients — Kate, Tom, Jackson, Tatiana, and Riccardo —  to identify who ran ten miles over the weekend. She occasionally consults her assistant Cole, who knows some clients better. Here is Sue's list:"",""contextPart2"":""Next up, she wants to record in the list whether <b>JACKSON</b> ran ten miles. Sue says to her business partner:"",""utterance"":""Cole doesn't know that Jackson ran ten miles"",""questionFIRST"":""Given what you have read above, how likely is it that Jackson ran ten miles?"",""questionSECOND"":""Given what you have read above, how likely is it that Cole believes that Jackson ran ten miles?"",""qud"":""ai"",""content"":""jackson"",""image"":""jackson-ai""}",50029.70000000298,NA,"{""stimFIRST"":54,""stimSECOND"":71}","[0,1]",NA,b649072d-dc5f-420f-82a2-fe171ef94d28,2024-03-28 14:55:33 CET
NA,NA,NA,NA,NA,survey,3,96643,0.0-3.0,"{""contextPart1"":""Sue runs a fitness club. She’s currently working through a list of her clients — Kate, Tom, Jackson, Tatiana, and Riccardo —  to identify who ran ten miles over the weekend. She occasionally consults her assistant Cole, who knows some clients better. Here is Sue's list:"",""contextPart2"":""Next up, she wants to record in the list whether <b>JACKSON</b> ran ten miles. Sue says to her business partner:"",""utterance"":""Cole doesn't know that Jackson ran ten miles"",""questionFIRST"":""Given what you have read above, how likely is it that Jackson ran ten miles?"",""questionSECOND"":""Given what you have read above, how likely is it that Cole believes that Jackson ran ten miles?"",""qud"":""ai"",""content"":""jackson"",""image"":""jackson-ai""}",44274,NA,"{""P0_Q0"":null,""age"":""42"",""gender"":"""",""language"":""yes"",""amE"":""yes"",""edu"":""some college"",""comments"":""""}",NA,[],b649072d-dc5f-420f-82a2-fe171ef94d28,2024-03-28 14:55:33 CET
TRUE,FALSE,[],[],[],preload,0,413,0.0-0.0,"{""contextPart1"":""Sue runs a fitness club. She’s currently working through a list of her clients — Kate, Tom, Jackson, Tatiana, and Riccardo —  to identify who ran ten miles over the weekend. She occasionally consults her assistant Cole, who knows some clients better. Here is Sue's list:"",""contextPart2"":""Next up, she wants to record in the list whether <b>JACKSON</b> ran ten miles. Sue says to her business partner:"",""utterance"":""Cole doesn't think that Jackson ran ten miles"",""questionFIRST"":""Given what you have read above, how likely is it that Jackson ran ten miles?"",""questionSECOND"":""Given what you have read above, how likely is it that Cole believes that Jackson ran ten miles?"",""qud"":""ai"",""content"":""jackson"",""image"":""jackson-ai""}",NA,NA,NA,NA,NA,e8ae309f-0bd9-4144-95f3-8c8b4c0a199d,2024-03-28 14:55:49 CET
NA,NA,NA,NA,NA,html-button-response,1,5828,0.0-1.0,"{""contextPart1"":""Sue runs a fitness club. She’s currently working through a list of her clients — Kate, Tom, Jackson, Tatiana, and Riccardo —  to identify who ran ten miles over the weekend. She occasionally consults her assistant Cole, who knows some clients better. Here is Sue's list:"",""contextPart2"":""Next up, she wants to record in the list whether <b>JACKSON</b> ran ten miles. Sue says to her business partner:"",""utterance"":""Cole doesn't think that Jackson ran ten miles"",""questionFIRST"":""Given what you have read above, how likely is it that Jackson ran ten miles?"",""questionSECOND"":""Given what you have read above, how likely is it that Cole believes that Jackson ran ten miles?"",""qud"":""ai"",""content"":""jackson"",""image"":""jackson-ai""}",5414,"<h3>Instructions</h3>  <p style='text-align:left'>In this experiment, you will read a short text and see an image. We will ask you two questions about what you have read. You will give your responses on a slider. </p>  <p style='text-align:left'>At the end of the experiment, we will ask you some demographic questions. The experiment will take less than two minutes.</p>  <p style='text-align:left' font size=""1"">By clicking on the button below you agree to participate in the experiment, which is conducted by language researchers. You may withdraw at any time. The data collected will be anonymous and confidential. If you have any questions, you may contact the experimenters through Prolific's platform.</p>",0,NA,NA,e8ae309f-0bd9-4144-95f3-8c8b4c0a199d,2024-03-28 14:55:49 CET
NA,NA,NA,NA,NA,multiple-slider,2,44691,0.0-2.0-0.0,"{""contextPart1"":""Sue runs a fitness club. She’s currently working through a list of her clients — Kate, Tom, Jackson, Tatiana, and Riccardo —  to identify who ran ten miles over the weekend. She occasionally consults her assistant Cole, who knows some clients better. Here is Sue's list:"",""contextPart2"":""Next up, she wants to record in the list whether <b>JACKSON</b> ran ten miles. Sue says to her business partner:"",""utterance"":""Cole doesn't think that Jackson ran ten miles"",""questionFIRST"":""Given what you have read above, how likely is it that Jackson ran ten miles?"",""questionSECOND"":""Given what you have read above, how likely is it that Cole believes that Jackson ran ten miles?"",""qud"":""ai"",""content"":""jackson"",""image"":""jackson-ai""}",38854.29999995232,NA,"{""stimFIRST"":32,""stimSECOND"":5}","[0,1]",NA,e8ae309f-0bd9-4144-95f3-8c8b4c0a199d,2024-03-28 14:55:49 CET
NA,NA,NA,NA,NA,survey,3,59935,0.0-3.0,"{""contextPart1"":""Sue runs a fitness club. She’s currently working through a list of her clients — Kate, Tom, Jackson, Tatiana, and Riccardo —  to identify who ran ten miles over the weekend. She occasionally consults her assistant Cole, who knows some clients better. Here is Sue's list:"",""contextPart2"":""Next up, she wants to record in the list whether <b>JACKSON</b> ran ten miles. Sue says to her business partner:"",""utterance"":""Cole doesn't think that Jackson ran ten miles"",""questionFIRST"":""Given what you have read above, how likely is it that Jackson ran ten miles?"",""questionSECOND"":""Given what you have read above, how likely is it that Cole believes that Jackson ran ten miles?"",""qud"":""ai"",""content"":""jackson"",""image"":""jackson-ai""}",15201,NA,"{""P0_Q0"":null,""age"":""42"",""gender"":""female"",""language"":""yes"",""amE"":""yes"",""edu"":""hold a higher degree"",""comments"":""""}",NA,[],e8ae309f-0bd9-4144-95f3-8c8b4c0a199d,2024-03-28 14:55:49 CET
TRUE,FALSE,[],[],[],preload,0,381,0.0-0.0,"{""contextPart1"":""Sue runs a fitness club. She’s currently working through a list of her clients — Kate, Tom, Jackson, Tatiana, and Riccardo —  to identify who ran ten miles over the weekend. She occasionally consults her assistant Cole, who knows some clients better. Here is Sue's list:"",""contextPart2"":""Next up, she wants to record in the list whether <b>JACKSON</b> ran ten miles. Sue says to her business partner:"",""utterance"":""Cole thinks that Jackson ran ten miles"",""questionFIRST"":""Given what you have read above, how likely is it that Jackson ran ten miles?"",""questionSECOND"":""Given what you have read above, how likely is it that Cole believes that Jackson ran ten miles?"",""qud"":""ai"",""content"":""jackson"",""image"":""jackson-ai""}",NA,NA,NA,NA,NA,8a2e3b89-a8d9-4837-8174-99463ca459fd,2024-03-28 14:57:45 CET
NA,NA,NA,NA,NA,html-button-response,1,8737,0.0-1.0,"{""contextPart1"":""Sue runs a fitness club. She’s currently working through a list of her clients — Kate, Tom, Jackson, Tatiana, and Riccardo —  to identify who ran ten miles over the weekend. She occasionally consults her assistant Cole, who knows some clients better. Here is Sue's list:"",""contextPart2"":""Next up, she wants to record in the list whether <b>JACKSON</b> ran ten miles. Sue says to her business partner:"",""utterance"":""Cole thinks that Jackson ran ten miles"",""questionFIRST"":""Given what you have read above, how likely is it that Jackson ran ten miles?"",""questionSECOND"":""Given what you have read above, how likely is it that Cole believes that Jackson ran ten miles?"",""qud"":""ai"",""content"":""jackson"",""image"":""jackson-ai""}",8353,"<h3>Instructions</h3>  <p style='text-align:left'>In this experiment, you will read a short text and see an image. We will ask you two questions about what you have read. You will give your responses on a slider. </p>  <p style='text-align:left'>At the end of the experiment, we will ask you some demographic questions. The experiment will take less than two minutes.</p>  <p style='text-align:left' font size=""1"">By clicking on the button below you agree to participate in the experiment, which is conducted by language researchers. You may withdraw at any time. The data collected will be anonymous and confidential. If you have any questions, you may contact the experimenters through Prolific's platform.</p>",0,NA,NA,8a2e3b89-a8d9-4837-8174-99463ca459fd,2024-03-28 14:57:45 CET
NA,NA,NA,NA,NA,multiple-slider,2,68421,0.0-2.0-0.0,"{""contextPart1"":""Sue runs a fitness club. She’s currently working through a list of her clients — Kate, Tom, Jackson, Tatiana, and Riccardo —  to identify who ran ten miles over the weekend. She occasionally consults her assistant Cole, who knows some clients better. Here is Sue's list:"",""contextPart2"":""Next up, she wants to record in the list whether <b>JACKSON</b> ran ten miles. Sue says to her business partner:"",""utterance"":""Cole thinks that Jackson ran ten miles"",""questionFIRST"":""Given what you have read above, how likely is it that Jackson ran ten miles?"",""questionSECOND"":""Given what you have read above, how likely is it that Cole believes that Jackson ran ten miles?"",""qud"":""ai"",""content"":""jackson"",""image"":""jackson-ai""}",59680.19999998808,NA,"{""stimFIRST"":95,""stimSECOND"":95}","[0,1]",NA,8a2e3b89-a8d9-4837-8174-99463ca459fd,2024-03-28 14:57:45 CET
NA,NA,NA,NA,NA,survey,3,89874,0.0-3.0,"{""contextPart1"":""Sue runs a fitness club. She’s currently working through a list of her clients — Kate, Tom, Jackson, Tatiana, and Riccardo —  to identify who ran ten miles over the weekend. She occasionally consults her assistant Cole, who knows some clients better. Here is Sue's list:"",""contextPart2"":""Next up, she wants to record in the list whether <b>JACKSON</b> ran ten miles. Sue says to her business partner:"",""utterance"":""Cole thinks that Jackson ran ten miles"",""questionFIRST"":""Given what you have read above, how likely is it that Jackson ran ten miles?"",""questionSECOND"":""Given what you have read above, how likely is it that Cole believes that Jackson ran ten miles?"",""qud"":""ai"",""content"":""jackson"",""image"":""jackson-ai""}",21406,NA,"{""P0_Q0"":null,""age"":""60"",""gender"":""female"",""language"":""yes"",""amE"":""yes"",""edu"":""hold a higher degree"",""comments"":""""}",NA,[],8a2e3b89-a8d9-4837-8174-99463ca459fd,2024-03-28 14:57:45 CET
TRUE,FALSE,[],[],[],preload,0,580,0.0-0.0,"{""contextPart1"":""Sue runs a fitness club. She’s currently working through a list of her clients — Kate, Tom, Jackson, Tatiana, and Riccardo —  to identify who ran ten miles over the weekend. She occasionally consults her assistant Cole, who knows some clients better. Here is Sue's list:"",""contextPart2"":""Next up, she wants to record in the list whether <b>JACKSON</b> ran ten miles. Sue says to her business partner:"",""utterance"":""Cole knows that Jackson ran ten miles"",""questionFIRST"":""Given what you have read above, how likely is it that Jackson ran ten miles?"",""questionSECOND"":""Given what you have read above, how likely is it that Cole believes that Jackson ran ten miles?"",""qud"":""ai"",""content"":""jackson"",""image"":""jackson-ai""}",NA,NA,NA,NA,NA,6f1cf9e9-93ca-42e1-9e67-c2c64e0d6681,2024-03-28 14:58:10 CET
NA,NA,NA,NA,NA,html-button-response,1,19189,0.0-1.0,"{""contextPart1"":""Sue runs a fitness club. She’s currently working through a list of her clients — Kate, Tom, Jackson, Tatiana, and Riccardo —  to identify who ran ten miles over the weekend. She occasionally consults her assistant Cole, who knows some clients better. Here is Sue's list:"",""contextPart2"":""Next up, she wants to record in the list whether <b>JACKSON</b> ran ten miles. Sue says to her business partner:"",""utterance"":""Cole knows that Jackson ran ten miles"",""questionFIRST"":""Given what you have read above, how likely is it that Jackson ran ten miles?"",""questionSECOND"":""Given what you have read above, how likely is it that Cole believes that Jackson ran ten miles?"",""qud"":""ai"",""content"":""jackson"",""image"":""jackson-ai""}",18607,"<h3>Instructions</h3>  <p style='text-align:left'>In this experiment, you will read a short text and see an image. We will ask you two questions about what you have read. You will give your responses on a slider. </p>  <p style='text-align:left'>At the end of the experiment, we will ask you some demographic questions. The experiment will take less than two minutes.</p>  <p style='text-align:left' font size=""1"">By clicking on the button below you agree to participate in the experiment, which is conducted by language researchers. You may withdraw at any time. The data collected will be anonymous and confidential. If you have any questions, you may contact the experimenters through Prolific's platform.</p>",0,NA,NA,6f1cf9e9-93ca-42e1-9e67-c2c64e0d6681,2024-03-28 14:58:10 CET
NA,NA,NA,NA,NA,multiple-slider,2,53467,0.0-2.0-0.0,"{""contextPart1"":""Sue runs a fitness club. She’s currently working through a list of her clients — Kate, Tom, Jackson, Tatiana, and Riccardo —  to identify who ran ten miles over the weekend. She occasionally consults her assistant Cole, who knows some clients better. Here is Sue's list:"",""contextPart2"":""Next up, she wants to record in the list whether <b>JACKSON</b> ran ten miles. Sue says to her business partner:"",""utterance"":""Cole knows that Jackson ran ten miles"",""questionFIRST"":""Given what you have read above, how likely is it that Jackson ran ten miles?"",""questionSECOND"":""Given what you have read above, how likely is it that Cole believes that Jackson ran ten miles?"",""qud"":""ai"",""content"":""jackson"",""image"":""jackson-ai""}",34275.199999928474,NA,"{""stimFIRST"":100,""stimSECOND"":97}","[0,1]",NA,6f1cf9e9-93ca-42e1-9e67-c2c64e0d6681,2024-03-28 14:58:10 CET
NA,NA,NA,NA,NA,survey,3,66869,0.0-3.0,"{""contextPart1"":""Sue runs a fitness club. She’s currently working through a list of her clients — Kate, Tom, Jackson, Tatiana, and Riccardo —  to identify who ran ten miles over the weekend. She occasionally consults her assistant Cole, who knows some clients better. Here is Sue's list:"",""contextPart2"":""Next up, she wants to record in the list whether <b>JACKSON</b> ran ten miles. Sue says to her business partner:"",""utterance"":""Cole knows that Jackson ran ten miles"",""questionFIRST"":""Given what you have read above, how likely is it that Jackson ran ten miles?"",""questionSECOND"":""Given what you have read above, how likely is it that Cole believes that Jackson ran ten miles?"",""qud"":""ai"",""content"":""jackson"",""image"":""jackson-ai""}",13370,NA,"{""P0_Q0"":null,""age"":""38"",""gender"":""female"",""language"":""yes"",""amE"":""yes"",""edu"":""graduated college"",""comments"":""""}",NA,[],6f1cf9e9-93ca-42e1-9e67-c2c64e0d6681,2024-03-28 14:58:10 CET
TRUE,FALSE,[],[],[],preload,0,417,0.0-0.0,"{""contextPart1"":""Sue runs a fitness club. She’s currently working through a list of her clients — Kate, Tom, Jackson, Tatiana, and Riccardo —  to identify who ran ten miles over the weekend. She occasionally consults her assistant Cole, who knows some clients better. Here is Sue's list:"",""contextPart2"":""Next up, she wants to record in the list whether <b>JACKSON</b> ran ten miles. Sue says to her business partner:"",""utterance"":""Cole knows that Jackson ran ten miles"",""questionFIRST"":""Given what you have read above, how likely is it that Jackson ran ten miles?"",""questionSECOND"":""Given what you have read above, how likely is it that Cole believes that Jackson ran ten miles?"",""qud"":""ai"",""content"":""jackson"",""image"":""jackson-ai""}",NA,NA,NA,NA,NA,a00dbba6-ac7f-4427-a772-3a31b38eb7a3,2024-03-28 14:58:31 CET
NA,NA,NA,NA,NA,html-button-response,1,2836,0.0-1.0,"{""contextPart1"":""Sue runs a fitness club. She’s currently working through a list of her clients — Kate, Tom, Jackson, Tatiana, and Riccardo —  to identify who ran ten miles over the weekend. She occasionally consults her assistant Cole, who knows some clients better. Here is Sue's list:"",""contextPart2"":""Next up, she wants to record in the list whether <b>JACKSON</b> ran ten miles. Sue says to her business partner:"",""utterance"":""Cole knows that Jackson ran ten miles"",""questionFIRST"":""Given what you have read above, how likely is it that Jackson ran ten miles?"",""questionSECOND"":""Given what you have read above, how likely is it that Cole believes that Jackson ran ten miles?"",""qud"":""ai"",""content"":""jackson"",""image"":""jackson-ai""}",2419,"<h3>Instructions</h3>  <p style='text-align:left'>In this experiment, you will read a short text and see an image. We will ask you two questions about what you have read. You will give your responses on a slider. </p>  <p style='text-align:left'>At the end of the experiment, we will ask you some demographic questions. The experiment will take less than two minutes.</p>  <p style='text-align:left' font size=""1"">By clicking on the button below you agree to participate in the experiment, which is conducted by language researchers. You may withdraw at any time. The data collected will be anonymous and confidential. If you have any questions, you may contact the experimenters through Prolific's platform.</p>",0,NA,NA,a00dbba6-ac7f-4427-a772-3a31b38eb7a3,2024-03-28 14:58:31 CET
NA,NA,NA,NA,NA,multiple-slider,2,26121,0.0-2.0-0.0,"{""contextPart1"":""Sue runs a fitness club. She’s currently working through a list of her clients — Kate, Tom, Jackson, Tatiana, and Riccardo —  to identify who ran ten miles over the weekend. She occasionally consults her assistant Cole, who knows some clients better. Here is Sue's list:"",""contextPart2"":""Next up, she wants to record in the list whether <b>JACKSON</b> ran ten miles. Sue says to her business partner:"",""utterance"":""Cole knows that Jackson ran ten miles"",""questionFIRST"":""Given what you have read above, how likely is it that Jackson ran ten miles?"",""questionSECOND"":""Given what you have read above, how likely is it that Cole believes that Jackson ran ten miles?"",""qud"":""ai"",""content"":""jackson"",""image"":""jackson-ai""}",23282,NA,"{""stimFIRST"":100,""stimSECOND"":100}","[0,1]",NA,a00dbba6-ac7f-4427-a772-3a31b38eb7a3,2024-03-28 14:58:31 CET
NA,NA,NA,NA,NA,survey,3,38754,0.0-3.0,"{""contextPart1"":""Sue runs a fitness club. She’s currently working through a list of her clients — Kate, Tom, Jackson, Tatiana, and Riccardo —  to identify who ran ten miles over the weekend. She occasionally consults her assistant Cole, who knows some clients better. Here is Sue's list:"",""contextPart2"":""Next up, she wants to record in the list whether <b>JACKSON</b> ran ten miles. Sue says to her business partner:"",""utterance"":""Cole knows that Jackson ran ten miles"",""questionFIRST"":""Given what you have read above, how likely is it that Jackson ran ten miles?"",""questionSECOND"":""Given what you have read above, how likely is it that Cole believes that Jackson ran ten miles?"",""qud"":""ai"",""content"":""jackson"",""image"":""jackson-ai""}",12604,NA,"{""P0_Q0"":null,""age"":""28"",""gender"":""female"",""language"":""yes"",""amE"":""yes"",""edu"":""graduated high school"",""comments"":""""}",NA,[],a00dbba6-ac7f-4427-a772-3a31b38eb7a3,2024-03-28 14:58:31 CET
TRUE,FALSE,[],[],[],preload,0,366,0.0-0.0,"{""contextPart1"":""Sue runs a fitness club. She’s currently working through a list of her clients — Kate, Tom, Jackson, Tatiana, and Riccardo —  to identify who ran ten miles over the weekend. She occasionally consults her assistant Cole, who knows some clients better. Here is Sue's list:"",""contextPart2"":""Next up, she wants to record in the list whether <b>JACKSON</b> ran ten miles. Sue says to her business partner:"",""utterance"":""Cole doesn't think that Jackson ran ten miles"",""questionFIRST"":""Given what you have read above, how likely is it that Jackson ran ten miles?"",""questionSECOND"":""Given what you have read above, how likely is it that Cole believes that Jackson ran ten miles?"",""qud"":""ai"",""content"":""jackson"",""image"":""jackson-ai""}",NA,NA,NA,NA,NA,0a1d1d23-b325-4e4e-9053-7e2ad54644fa,2024-03-28 15:01:50 CET
NA,NA,NA,NA,NA,html-button-response,1,16504,0.0-1.0,"{""contextPart1"":""Sue runs a fitness club. She’s currently working through a list of her clients — Kate, Tom, Jackson, Tatiana, and Riccardo —  to identify who ran ten miles over the weekend. She occasionally consults her assistant Cole, who knows some clients better. Here is Sue's list:"",""contextPart2"":""Next up, she wants to record in the list whether <b>JACKSON</b> ran ten miles. Sue says to her business partner:"",""utterance"":""Cole doesn't think that Jackson ran ten miles"",""questionFIRST"":""Given what you have read above, how likely is it that Jackson ran ten miles?"",""questionSECOND"":""Given what you have read above, how likely is it that Cole believes that Jackson ran ten miles?"",""qud"":""ai"",""content"":""jackson"",""image"":""jackson-ai""}",16137,"<h3>Instructions</h3>  <p style='text-align:left'>In this experiment, you will read a short text and see an image. We will ask you two questions about what you have read. You will give your responses on a slider. </p>  <p style='text-align:left'>At the end of the experiment, we will ask you some demographic questions. The experiment will take less than two minutes.</p>  <p style='text-align:left' font size=""1"">By clicking on the button below you agree to participate in the experiment, which is conducted by language researchers. You may withdraw at any time. The data collected will be anonymous and confidential. If you have any questions, you may contact the experimenters through Prolific's platform.</p>",0,NA,NA,0a1d1d23-b325-4e4e-9053-7e2ad54644fa,2024-03-28 15:01:50 CET
NA,NA,NA,NA,NA,multiple-slider,2,50553,0.0-2.0-0.0,"{""contextPart1"":""Sue runs a fitness club. She’s currently working through a list of her clients — Kate, Tom, Jackson, Tatiana, and Riccardo —  to identify who ran ten miles over the weekend. She occasionally consults her assistant Cole, who knows some clients better. Here is Sue's list:"",""contextPart2"":""Next up, she wants to record in the list whether <b>JACKSON</b> ran ten miles. Sue says to her business partner:"",""utterance"":""Cole doesn't think that Jackson ran ten miles"",""questionFIRST"":""Given what you have read above, how likely is it that Jackson ran ten miles?"",""questionSECOND"":""Given what you have read above, how likely is it that Cole believes that Jackson ran ten miles?"",""qud"":""ai"",""content"":""jackson"",""image"":""jackson-ai""}",34043.2999997139,NA,"{""stimFIRST"":47,""stimSECOND"":0}","[0,1]",NA,0a1d1d23-b325-4e4e-9053-7e2ad54644fa,2024-03-28 15:01:50 CET
NA,NA,NA,NA,NA,survey,3,69224,0.0-3.0,"{""contextPart1"":""Sue runs a fitness club. She’s currently working through a list of her clients — Kate, Tom, Jackson, Tatiana, and Riccardo —  to identify who ran ten miles over the weekend. She occasionally consults her assistant Cole, who knows some clients better. Here is Sue's list:"",""contextPart2"":""Next up, she wants to record in the list whether <b>JACKSON</b> ran ten miles. Sue says to her business partner:"",""utterance"":""Cole doesn't think that Jackson ran ten miles"",""questionFIRST"":""Given what you have read above, how likely is it that Jackson ran ten miles?"",""questionSECOND"":""Given what you have read above, how likely is it that Cole believes that Jackson ran ten miles?"",""qud"":""ai"",""content"":""jackson"",""image"":""jackson-ai""}",18567,NA,"{""P0_Q0"":null,""age"":""24"",""gender"":""female"",""language"":""yes"",""amE"":""yes"",""edu"":""hold a higher degree"",""comments"":""""}",NA,[],0a1d1d23-b325-4e4e-9053-7e2ad54644fa,2024-03-28 15:01:50 CET
TRUE,FALSE,[],[],[],preload,0,290,0.0-0.0,"{""contextPart1"":""Sue runs a fitness club. She’s currently working through a list of her clients — Kate, Tom, Jackson, Tatiana, and Riccardo —  to identify who ran ten miles over the weekend. She occasionally consults her assistant Cole, who knows some clients better. Here is Sue's list:"",""contextPart2"":""Next up, she wants to record in the list whether <b>JACKSON</b> ran ten miles. Sue says to her business partner:"",""utterance"":""Cole thinks that Jackson ran ten miles"",""questionFIRST"":""Given what you have read above, how likely is it that Jackson ran ten miles?"",""questionSECOND"":""Given what you have read above, how likely is it that Cole believes that Jackson ran ten miles?"",""qud"":""ai"",""content"":""jackson"",""image"":""jackson-ai""}",NA,NA,NA,NA,NA,c05fb7ad-23c1-46a5-90c9-ecdb8aa3257b,2024-03-28 15:06:36 CET
NA,NA,NA,NA,NA,html-button-response,1,2536,0.0-1.0,"{""contextPart1"":""Sue runs a fitness club. She’s currently working through a list of her clients — Kate, Tom, Jackson, Tatiana, and Riccardo —  to identify who ran ten miles over the weekend. She occasionally consults her assistant Cole, who knows some clients better. Here is Sue's list:"",""contextPart2"":""Next up, she wants to record in the list whether <b>JACKSON</b> ran ten miles. Sue says to her business partner:"",""utterance"":""Cole thinks that Jackson ran ten miles"",""questionFIRST"":""Given what you have read above, how likely is it that Jackson ran ten miles?"",""questionSECOND"":""Given what you have read above, how likely is it that Cole believes that Jackson ran ten miles?"",""qud"":""ai"",""content"":""jackson"",""image"":""jackson-ai""}",2245,"<h3>Instructions</h3>  <p style='text-align:left'>In this experiment, you will read a short text and see an image. We will ask you two questions about what you have read. You will give your responses on a slider. </p>  <p style='text-align:left'>At the end of the experiment, we will ask you some demographic questions. The experiment will take less than two minutes.</p>  <p style='text-align:left' font size=""1"">By clicking on the button below you agree to participate in the experiment, which is conducted by language researchers. You may withdraw at any time. The data collected will be anonymous and confidential. If you have any questions, you may contact the experimenters through Prolific's platform.</p>",0,NA,NA,c05fb7ad-23c1-46a5-90c9-ecdb8aa3257b,2024-03-28 15:06:36 CET
NA,NA,NA,NA,NA,multiple-slider,2,26918,0.0-2.0-0.0,"{""contextPart1"":""Sue runs a fitness club. She’s currently working through a list of her clients — Kate, Tom, Jackson, Tatiana, and Riccardo —  to identify who ran ten miles over the weekend. She occasionally consults her assistant Cole, who knows some clients better. Here is Sue's list:"",""contextPart2"":""Next up, she wants to record in the list whether <b>JACKSON</b> ran ten miles. Sue says to her business partner:"",""utterance"":""Cole thinks that Jackson ran ten miles"",""questionFIRST"":""Given what you have read above, how likely is it that Jackson ran ten miles?"",""questionSECOND"":""Given what you have read above, how likely is it that Cole believes that Jackson ran ten miles?"",""qud"":""ai"",""content"":""jackson"",""image"":""jackson-ai""}",24381,NA,"{""stimFIRST"":84,""stimSECOND"":95}","[0,1]",NA,c05fb7ad-23c1-46a5-90c9-ecdb8aa3257b,2024-03-28 15:06:36 CET
NA,NA,NA,NA,NA,survey,3,76577,0.0-3.0,"{""contextPart1"":""Sue runs a fitness club. She’s currently working through a list of her clients — Kate, Tom, Jackson, Tatiana, and Riccardo —  to identify who ran ten miles over the weekend. She occasionally consults her assistant Cole, who knows some clients better. Here is Sue's list:"",""contextPart2"":""Next up, she wants to record in the list whether <b>JACKSON</b> ran ten miles. Sue says to her business partner:"",""utterance"":""Cole thinks that Jackson ran ten miles"",""questionFIRST"":""Given what you have read above, how likely is it that Jackson ran ten miles?"",""questionSECOND"":""Given what you have read above, how likely is it that Cole believes that Jackson ran ten miles?"",""qud"":""ai"",""content"":""jackson"",""image"":""jackson-ai""}",49619,NA,"{""P0_Q0"":null,""age"":""34"",""gender"":""female"",""language"":""yes"",""amE"":""yes"",""edu"":""graduated college"",""comments"":""""}",NA,[],c05fb7ad-23c1-46a5-90c9-ecdb8aa3257b,2024-03-28 15:06:36 CET
TRUE,FALSE,[],[],[],preload,0,300,0.0-0.0,"{""contextPart1"":""Sue runs a fitness club. She’s currently working through a list of her clients — Kate, Tom, Jackson, Tatiana, and Riccardo —  to identify who ran ten miles over the weekend. She occasionally consults her assistant Cole, who knows some clients better. Here is Sue's list:"",""contextPart2"":""Next up, she wants to record in the list whether <b>JACKSON</b> ran ten miles. Sue says to her business partner:"",""utterance"":""Cole doesn't know that Jackson ran ten miles"",""questionFIRST"":""Given what you have read above, how likely is it that Jackson ran ten miles?"",""questionSECOND"":""Given what you have read above, how likely is it that Cole believes that Jackson ran ten miles?"",""qud"":""ai"",""content"":""jackson"",""image"":""jackson-ai""}",NA,NA,NA,NA,NA,bb27ab6d-8fb0-4b3f-81b5-79ed96bbfd20,2024-03-28 15:07:57 CET
NA,NA,NA,NA,NA,html-button-response,1,23008,0.0-1.0,"{""contextPart1"":""Sue runs a fitness club. She’s currently working through a list of her clients — Kate, Tom, Jackson, Tatiana, and Riccardo —  to identify who ran ten miles over the weekend. She occasionally consults her assistant Cole, who knows some clients better. Here is Sue's list:"",""contextPart2"":""Next up, she wants to record in the list whether <b>JACKSON</b> ran ten miles. Sue says to her business partner:"",""utterance"":""Cole doesn't know that Jackson ran ten miles"",""questionFIRST"":""Given what you have read above, how likely is it that Jackson ran ten miles?"",""questionSECOND"":""Given what you have read above, how likely is it that Cole believes that Jackson ran ten miles?"",""qud"":""ai"",""content"":""jackson"",""image"":""jackson-ai""}",22704,"<h3>Instructions</h3>  <p style='text-align:left'>In this experiment, you will read a short text and see an image. We will ask you two questions about what you have read. You will give your responses on a slider. </p>  <p style='text-align:left'>At the end of the experiment, we will ask you some demographic questions. The experiment will take less than two minutes.</p>  <p style='text-align:left' font size=""1"">By clicking on the button below you agree to participate in the experiment, which is conducted by language researchers. You may withdraw at any time. The data collected will be anonymous and confidential. If you have any questions, you may contact the experimenters through Prolific's platform.</p>",0,NA,NA,bb27ab6d-8fb0-4b3f-81b5-79ed96bbfd20,2024-03-28 15:07:57 CET
NA,NA,NA,NA,NA,multiple-slider,2,69042,0.0-2.0-0.0,"{""contextPart1"":""Sue runs a fitness club. She’s currently working through a list of her clients — Kate, Tom, Jackson, Tatiana, and Riccardo —  to identify who ran ten miles over the weekend. She occasionally consults her assistant Cole, who knows some clients better. Here is Sue's list:"",""contextPart2"":""Next up, she wants to record in the list whether <b>JACKSON</b> ran ten miles. Sue says to her business partner:"",""utterance"":""Cole doesn't know that Jackson ran ten miles"",""questionFIRST"":""Given what you have read above, how likely is it that Jackson ran ten miles?"",""questionSECOND"":""Given what you have read above, how likely is it that Cole believes that Jackson ran ten miles?"",""qud"":""ai"",""content"":""jackson"",""image"":""jackson-ai""}",46032.29999995232,NA,"{""stimFIRST"":47,""stimSECOND"":42}","[0,1]",NA,bb27ab6d-8fb0-4b3f-81b5-79ed96bbfd20,2024-03-28 15:07:57 CET
NA,NA,NA,NA,NA,survey,3,93469,0.0-3.0,"{""contextPart1"":""Sue runs a fitness club. She’s currently working through a list of her clients — Kate, Tom, Jackson, Tatiana, and Riccardo —  to identify who ran ten miles over the weekend. She occasionally consults her assistant Cole, who knows some clients better. Here is Sue's list:"",""contextPart2"":""Next up, she wants to record in the list whether <b>JACKSON</b> ran ten miles. Sue says to her business partner:"",""utterance"":""Cole doesn't know that Jackson ran ten miles"",""questionFIRST"":""Given what you have read above, how likely is it that Jackson ran ten miles?"",""questionSECOND"":""Given what you have read above, how likely is it that Cole believes that Jackson ran ten miles?"",""qud"":""ai"",""content"":""jackson"",""image"":""jackson-ai""}",24353,NA,"{""P0_Q0"":null,""age"":""23"",""gender"":""male"",""language"":""yes"",""amE"":""yes"",""edu"":""some college"",""comments"":""none""}",NA,[],bb27ab6d-8fb0-4b3f-81b5-79ed96bbfd20,2024-03-28 15:07:57 CET
TRUE,FALSE,[],[],[],preload,0,484,0.0-0.0,"{""contextPart1"":""Sue runs a fitness club. She’s currently working through a list of her clients — Kate, Tom, Jackson, Tatiana, and Riccardo —  to identify who ran ten miles over the weekend. She occasionally consults her assistant Cole, who knows some clients better. Here is Sue's list:"",""contextPart2"":""Next up, she wants to record in the list whether <b>JACKSON</b> ran ten miles. Sue says to her business partner:"",""utterance"":""Cole doesn't know that Jackson ran ten miles"",""questionFIRST"":""Given what you have read above, how likely is it that Jackson ran ten miles?"",""questionSECOND"":""Given what you have read above, how likely is it that Cole believes that Jackson ran ten miles?"",""qud"":""ai"",""content"":""jackson"",""image"":""jackson-ai""}",NA,NA,NA,NA,NA,6c35f54f-4881-4ba0-9729-3e70d5b595b5,2024-03-28 15:08:53 CET
NA,NA,NA,NA,NA,html-button-response,1,1572,0.0-1.0,"{""contextPart1"":""Sue runs a fitness club. She’s currently working through a list of her clients — Kate, Tom, Jackson, Tatiana, and Riccardo —  to identify who ran ten miles over the weekend. She occasionally consults her assistant Cole, who knows some clients better. Here is Sue's list:"",""contextPart2"":""Next up, she wants to record in the list whether <b>JACKSON</b> ran ten miles. Sue says to her business partner:"",""utterance"":""Cole doesn't know that Jackson ran ten miles"",""questionFIRST"":""Given what you have read above, how likely is it that Jackson ran ten miles?"",""questionSECOND"":""Given what you have read above, how likely is it that Cole believes that Jackson ran ten miles?"",""qud"":""ai"",""content"":""jackson"",""image"":""jackson-ai""}",1086,"<h3>Instructions</h3>  <p style='text-align:left'>In this experiment, you will read a short text and see an image. We will ask you two questions about what you have read. You will give your responses on a slider. </p>  <p style='text-align:left'>At the end of the experiment, we will ask you some demographic questions. The experiment will take less than two minutes.</p>  <p style='text-align:left' font size=""1"">By clicking on the button below you agree to participate in the experiment, which is conducted by language researchers. You may withdraw at any time. The data collected will be anonymous and confidential. If you have any questions, you may contact the experimenters through Prolific's platform.</p>",0,NA,NA,6c35f54f-4881-4ba0-9729-3e70d5b595b5,2024-03-28 15:08:53 CET
NA,NA,NA,NA,NA,multiple-slider,2,30153,0.0-2.0-0.0,"{""contextPart1"":""Sue runs a fitness club. She’s currently working through a list of her clients — Kate, Tom, Jackson, Tatiana, and Riccardo —  to identify who ran ten miles over the weekend. She occasionally consults her assistant Cole, who knows some clients better. Here is Sue's list:"",""contextPart2"":""Next up, she wants to record in the list whether <b>JACKSON</b> ran ten miles. Sue says to her business partner:"",""utterance"":""Cole doesn't know that Jackson ran ten miles"",""questionFIRST"":""Given what you have read above, how likely is it that Jackson ran ten miles?"",""questionSECOND"":""Given what you have read above, how likely is it that Cole believes that Jackson ran ten miles?"",""qud"":""ai"",""content"":""jackson"",""image"":""jackson-ai""}",28579.700000047684,NA,"{""stimFIRST"":49,""stimSECOND"":49}","[0,1]",NA,6c35f54f-4881-4ba0-9729-3e70d5b595b5,2024-03-28 15:08:53 CET
NA,NA,NA,NA,NA,survey,3,41434,0.0-3.0,"{""contextPart1"":""Sue runs a fitness club. She’s currently working through a list of her clients — Kate, Tom, Jackson, Tatiana, and Riccardo —  to identify who ran ten miles over the weekend. She occasionally consults her assistant Cole, who knows some clients better. Here is Sue's list:"",""contextPart2"":""Next up, she wants to record in the list whether <b>JACKSON</b> ran ten miles. Sue says to her business partner:"",""utterance"":""Cole doesn't know that Jackson ran ten miles"",""questionFIRST"":""Given what you have read above, how likely is it that Jackson ran ten miles?"",""questionSECOND"":""Given what you have read above, how likely is it that Cole believes that Jackson ran ten miles?"",""qud"":""ai"",""content"":""jackson"",""image"":""jackson-ai""}",11233,NA,"{""P0_Q0"":null,""age"":""34"",""gender"":""female"",""language"":""yes"",""amE"":""yes"",""edu"":""graduated college"",""comments"":""""}",NA,[],6c35f54f-4881-4ba0-9729-3e70d5b595b5,2024-03-28 15:08:53 CET
TRUE,FALSE,[],[],[],preload,0,370,0.0-0.0,"{""contextPart1"":""Sue runs a fitness club. She’s currently working through a list of her clients — Kate, Tom, Jackson, Tatiana, and Riccardo —  to identify who ran ten miles over the weekend. She occasionally consults her assistant Cole, who knows some clients better. Here is Sue's list:"",""contextPart2"":""Next up, she wants to record in the list whether <b>JACKSON</b> ran ten miles. Sue says to her business partner:"",""utterance"":""Cole knows that Jackson ran ten miles"",""questionFIRST"":""Given what you have read above, how likely is it that Jackson ran ten miles?"",""questionSECOND"":""Given what you have read above, how likely is it that Cole believes that Jackson ran ten miles?"",""qud"":""ai"",""content"":""jackson"",""image"":""jackson-ai""}",NA,NA,NA,NA,NA,6ded5e54-a1d6-41cc-be94-2bbb5fea6cdb,2024-03-28 15:09:16 CET
NA,NA,NA,NA,NA,html-button-response,1,5405,0.0-1.0,"{""contextPart1"":""Sue runs a fitness club. She’s currently working through a list of her clients — Kate, Tom, Jackson, Tatiana, and Riccardo —  to identify who ran ten miles over the weekend. She occasionally consults her assistant Cole, who knows some clients better. Here is Sue's list:"",""contextPart2"":""Next up, she wants to record in the list whether <b>JACKSON</b> ran ten miles. Sue says to her business partner:"",""utterance"":""Cole knows that Jackson ran ten miles"",""questionFIRST"":""Given what you have read above, how likely is it that Jackson ran ten miles?"",""questionSECOND"":""Given what you have read above, how likely is it that Cole believes that Jackson ran ten miles?"",""qud"":""ai"",""content"":""jackson"",""image"":""jackson-ai""}",5031,"<h3>Instructions</h3>  <p style='text-align:left'>In this experiment, you will read a short text and see an image. We will ask you two questions about what you have read. You will give your responses on a slider. </p>  <p style='text-align:left'>At the end of the experiment, we will ask you some demographic questions. The experiment will take less than two minutes.</p>  <p style='text-align:left' font size=""1"">By clicking on the button below you agree to participate in the experiment, which is conducted by language researchers. You may withdraw at any time. The data collected will be anonymous and confidential. If you have any questions, you may contact the experimenters through Prolific's platform.</p>",0,NA,NA,6ded5e54-a1d6-41cc-be94-2bbb5fea6cdb,2024-03-28 15:09:16 CET
NA,NA,NA,NA,NA,multiple-slider,2,33512,0.0-2.0-0.0,"{""contextPart1"":""Sue runs a fitness club. She’s currently working through a list of her clients — Kate, Tom, Jackson, Tatiana, and Riccardo —  to identify who ran ten miles over the weekend. She occasionally consults her assistant Cole, who knows some clients better. Here is Sue's list:"",""contextPart2"":""Next up, she wants to record in the list whether <b>JACKSON</b> ran ten miles. Sue says to her business partner:"",""utterance"":""Cole knows that Jackson ran ten miles"",""questionFIRST"":""Given what you have read above, how likely is it that Jackson ran ten miles?"",""questionSECOND"":""Given what you have read above, how likely is it that Cole believes that Jackson ran ten miles?"",""qud"":""ai"",""content"":""jackson"",""image"":""jackson-ai""}",28103.700000047684,NA,"{""stimFIRST"":100,""stimSECOND"":96}","[0,1]",NA,6ded5e54-a1d6-41cc-be94-2bbb5fea6cdb,2024-03-28 15:09:16 CET
NA,NA,NA,NA,NA,survey,3,50936,0.0-3.0,"{""contextPart1"":""Sue runs a fitness club. She’s currently working through a list of her clients — Kate, Tom, Jackson, Tatiana, and Riccardo —  to identify who ran ten miles over the weekend. She occasionally consults her assistant Cole, who knows some clients better. Here is Sue's list:"",""contextPart2"":""Next up, she wants to record in the list whether <b>JACKSON</b> ran ten miles. Sue says to her business partner:"",""utterance"":""Cole knows that Jackson ran ten miles"",""questionFIRST"":""Given what you have read above, how likely is it that Jackson ran ten miles?"",""questionSECOND"":""Given what you have read above, how likely is it that Cole believes that Jackson ran ten miles?"",""qud"":""ai"",""content"":""jackson"",""image"":""jackson-ai""}",17360,NA,"{""P0_Q0"":null,""age"":""25"",""gender"":""female"",""language"":""yes"",""amE"":""yes"",""edu"":""graduated college"",""comments"":""""}",NA,[],6ded5e54-a1d6-41cc-be94-2bbb5fea6cdb,2024-03-28 15:09:16 CET
TRUE,FALSE,[],[],[],preload,0,373,0.0-0.0,"{""contextPart1"":""Sue runs a fitness club. She’s currently working through a list of her clients — Kate, Tom, Jackson, Tatiana, and Riccardo —  to identify who ran ten miles over the weekend. She occasionally consults her assistant Cole, who knows some clients better. Here is Sue's list:"",""contextPart2"":""Next up, she wants to record in the list whether <b>JACKSON</b> ran ten miles. Sue says to her business partner:"",""utterance"":""Cole doesn't know that Jackson ran ten miles"",""questionFIRST"":""Given what you have read above, how likely is it that Jackson ran ten miles?"",""questionSECOND"":""Given what you have read above, how likely is it that Cole believes that Jackson ran ten miles?"",""qud"":""ai"",""content"":""jackson"",""image"":""jackson-ai""}",NA,NA,NA,NA,NA,121c7112-e1cc-4adc-9b94-f6ad794d3e2a,2024-03-28 15:13:06 CET
NA,NA,NA,NA,NA,html-button-response,1,1888,0.0-1.0,"{""contextPart1"":""Sue runs a fitness club. She’s currently working through a list of her clients — Kate, Tom, Jackson, Tatiana, and Riccardo —  to identify who ran ten miles over the weekend. She occasionally consults her assistant Cole, who knows some clients better. Here is Sue's list:"",""contextPart2"":""Next up, she wants to record in the list whether <b>JACKSON</b> ran ten miles. Sue says to her business partner:"",""utterance"":""Cole doesn't know that Jackson ran ten miles"",""questionFIRST"":""Given what you have read above, how likely is it that Jackson ran ten miles?"",""questionSECOND"":""Given what you have read above, how likely is it that Cole believes that Jackson ran ten miles?"",""qud"":""ai"",""content"":""jackson"",""image"":""jackson-ai""}",1513,"<h3>Instructions</h3>  <p style='text-align:left'>In this experiment, you will read a short text and see an image. We will ask you two questions about what you have read. You will give your responses on a slider. </p>  <p style='text-align:left'>At the end of the experiment, we will ask you some demographic questions. The experiment will take less than two minutes.</p>  <p style='text-align:left' font size=""1"">By clicking on the button below you agree to participate in the experiment, which is conducted by language researchers. You may withdraw at any time. The data collected will be anonymous and confidential. If you have any questions, you may contact the experimenters through Prolific's platform.</p>",0,NA,NA,121c7112-e1cc-4adc-9b94-f6ad794d3e2a,2024-03-28 15:13:06 CET
NA,NA,NA,NA,NA,multiple-slider,2,21025,0.0-2.0-0.0,"{""contextPart1"":""Sue runs a fitness club. She’s currently working through a list of her clients — Kate, Tom, Jackson, Tatiana, and Riccardo —  to identify who ran ten miles over the weekend. She occasionally consults her assistant Cole, who knows some clients better. Here is Sue's list:"",""contextPart2"":""Next up, she wants to record in the list whether <b>JACKSON</b> ran ten miles. Sue says to her business partner:"",""utterance"":""Cole doesn't know that Jackson ran ten miles"",""questionFIRST"":""Given what you have read above, how likely is it that Jackson ran ten miles?"",""questionSECOND"":""Given what you have read above, how likely is it that Cole believes that Jackson ran ten miles?"",""qud"":""ai"",""content"":""jackson"",""image"":""jackson-ai""}",19134.699999999953,NA,"{""stimFIRST"":80,""stimSECOND"":16}","[0,1]",NA,121c7112-e1cc-4adc-9b94-f6ad794d3e2a,2024-03-28 15:13:06 CET
NA,NA,NA,NA,NA,survey,3,35124,0.0-3.0,"{""contextPart1"":""Sue runs a fitness club. She’s currently working through a list of her clients — Kate, Tom, Jackson, Tatiana, and Riccardo —  to identify who ran ten miles over the weekend. She occasionally consults her assistant Cole, who knows some clients better. Here is Sue's list:"",""contextPart2"":""Next up, she wants to record in the list whether <b>JACKSON</b> ran ten miles. Sue says to her business partner:"",""utterance"":""Cole doesn't know that Jackson ran ten miles"",""questionFIRST"":""Given what you have read above, how likely is it that Jackson ran ten miles?"",""questionSECOND"":""Given what you have read above, how likely is it that Cole believes that Jackson ran ten miles?"",""qud"":""ai"",""content"":""jackson"",""image"":""jackson-ai""}",14037,NA,"{""P0_Q0"":null,""age"":""23"",""gender"":""female"",""language"":""yes"",""amE"":""yes"",""edu"":""graduated college"",""comments"":""""}",NA,[],121c7112-e1cc-4adc-9b94-f6ad794d3e2a,2024-03-28 15:13:06 CET
TRUE,FALSE,[],[],[],preload,0,322,0.0-0.0,"{""contextPart1"":""Sue runs a fitness club. She’s currently working through a list of her clients — Kate, Tom, Jackson, Tatiana, and Riccardo —  to identify who ran ten miles over the weekend. She occasionally consults her assistant Cole, who knows some clients better. Here is Sue's list:"",""contextPart2"":""Next up, she wants to record in the list whether <b>JACKSON</b> ran ten miles. Sue says to her business partner:"",""utterance"":""Cole knows that Jackson ran ten miles"",""questionFIRST"":""Given what you have read above, how likely is it that Jackson ran ten miles?"",""questionSECOND"":""Given what you have read above, how likely is it that Cole believes that Jackson ran ten miles?"",""qud"":""ai"",""content"":""jackson"",""image"":""jackson-ai""}",NA,NA,NA,NA,NA,4e0e4f9c-3c7d-4b29-8f96-38c574206573,2024-03-28 15:13:09 CET
NA,NA,NA,NA,NA,html-button-response,1,8924,0.0-1.0,"{""contextPart1"":""Sue runs a fitness club. She’s currently working through a list of her clients — Kate, Tom, Jackson, Tatiana, and Riccardo —  to identify who ran ten miles over the weekend. She occasionally consults her assistant Cole, who knows some clients better. Here is Sue's list:"",""contextPart2"":""Next up, she wants to record in the list whether <b>JACKSON</b> ran ten miles. Sue says to her business partner:"",""utterance"":""Cole knows that Jackson ran ten miles"",""questionFIRST"":""Given what you have read above, how likely is it that Jackson ran ten miles?"",""questionSECOND"":""Given what you have read above, how likely is it that Cole believes that Jackson ran ten miles?"",""qud"":""ai"",""content"":""jackson"",""image"":""jackson-ai""}",8600,"<h3>Instructions</h3>  <p style='text-align:left'>In this experiment, you will read a short text and see an image. We will ask you two questions about what you have read. You will give your responses on a slider. </p>  <p style='text-align:left'>At the end of the experiment, we will ask you some demographic questions. The experiment will take less than two minutes.</p>  <p style='text-align:left' font size=""1"">By clicking on the button below you agree to participate in the experiment, which is conducted by language researchers. You may withdraw at any time. The data collected will be anonymous and confidential. If you have any questions, you may contact the experimenters through Prolific's platform.</p>",0,NA,NA,4e0e4f9c-3c7d-4b29-8f96-38c574206573,2024-03-28 15:13:09 CET
NA,NA,NA,NA,NA,multiple-slider,2,41634,0.0-2.0-0.0,"{""contextPart1"":""Sue runs a fitness club. She’s currently working through a list of her clients — Kate, Tom, Jackson, Tatiana, and Riccardo —  to identify who ran ten miles over the weekend. She occasionally consults her assistant Cole, who knows some clients better. Here is Sue's list:"",""contextPart2"":""Next up, she wants to record in the list whether <b>JACKSON</b> ran ten miles. Sue says to her business partner:"",""utterance"":""Cole knows that Jackson ran ten miles"",""questionFIRST"":""Given what you have read above, how likely is it that Jackson ran ten miles?"",""questionSECOND"":""Given what you have read above, how likely is it that Cole believes that Jackson ran ten miles?"",""qud"":""ai"",""content"":""jackson"",""image"":""jackson-ai""}",32706.69999999553,NA,"{""stimFIRST"":77,""stimSECOND"":84}","[0,1]",NA,4e0e4f9c-3c7d-4b29-8f96-38c574206573,2024-03-28 15:13:09 CET
NA,NA,NA,NA,NA,survey,3,149290,0.0-3.0,"{""contextPart1"":""Sue runs a fitness club. She’s currently working through a list of her clients — Kate, Tom, Jackson, Tatiana, and Riccardo —  to identify who ran ten miles over the weekend. She occasionally consults her assistant Cole, who knows some clients better. Here is Sue's list:"",""contextPart2"":""Next up, she wants to record in the list whether <b>JACKSON</b> ran ten miles. Sue says to her business partner:"",""utterance"":""Cole knows that Jackson ran ten miles"",""questionFIRST"":""Given what you have read above, how likely is it that Jackson ran ten miles?"",""questionSECOND"":""Given what you have read above, how likely is it that Cole believes that Jackson ran ten miles?"",""qud"":""ai"",""content"":""jackson"",""image"":""jackson-ai""}",107601,NA,"{""P0_Q0"":null,""age"":""53"",""gender"":""female"",""language"":""yes"",""amE"":""yes"",""edu"":""graduated college"",""comments"":""N/a""}",NA,[],4e0e4f9c-3c7d-4b29-8f96-38c574206573,2024-03-28 15:13:09 CET
TRUE,FALSE,[],[],[],preload,0,378,0.0-0.0,"{""contextPart1"":""Sue runs a fitness club. She’s currently working through a list of her clients — Kate, Tom, Jackson, Tatiana, and Riccardo —  to identify who ran ten miles over the weekend. She occasionally consults her assistant Cole, who knows some clients better. Here is Sue's list:"",""contextPart2"":""Next up, she wants to record in the list whether <b>JACKSON</b> ran ten miles. Sue says to her business partner:"",""utterance"":""Cole doesn't know that Jackson ran ten miles"",""questionFIRST"":""Given what you have read above, how likely is it that Jackson ran ten miles?"",""questionSECOND"":""Given what you have read above, how likely is it that Cole believes that Jackson ran ten miles?"",""qud"":""ai"",""content"":""jackson"",""image"":""jackson-ai""}",NA,NA,NA,NA,NA,0f628b5b-baf3-4cbb-b294-8d1da7d76a53,2024-03-28 15:13:22 CET
NA,NA,NA,NA,NA,html-button-response,1,12619,0.0-1.0,"{""contextPart1"":""Sue runs a fitness club. She’s currently working through a list of her clients — Kate, Tom, Jackson, Tatiana, and Riccardo —  to identify who ran ten miles over the weekend. She occasionally consults her assistant Cole, who knows some clients better. Here is Sue's list:"",""contextPart2"":""Next up, she wants to record in the list whether <b>JACKSON</b> ran ten miles. Sue says to her business partner:"",""utterance"":""Cole doesn't know that Jackson ran ten miles"",""questionFIRST"":""Given what you have read above, how likely is it that Jackson ran ten miles?"",""questionSECOND"":""Given what you have read above, how likely is it that Cole believes that Jackson ran ten miles?"",""qud"":""ai"",""content"":""jackson"",""image"":""jackson-ai""}",12240,"<h3>Instructions</h3>  <p style='text-align:left'>In this experiment, you will read a short text and see an image. We will ask you two questions about what you have read. You will give your responses on a slider. </p>  <p style='text-align:left'>At the end of the experiment, we will ask you some demographic questions. The experiment will take less than two minutes.</p>  <p style='text-align:left' font size=""1"">By clicking on the button below you agree to participate in the experiment, which is conducted by language researchers. You may withdraw at any time. The data collected will be anonymous and confidential. If you have any questions, you may contact the experimenters through Prolific's platform.</p>",0,NA,NA,0f628b5b-baf3-4cbb-b294-8d1da7d76a53,2024-03-28 15:13:22 CET
NA,NA,NA,NA,NA,multiple-slider,2,39812,0.0-2.0-0.0,"{""contextPart1"":""Sue runs a fitness club. She’s currently working through a list of her clients — Kate, Tom, Jackson, Tatiana, and Riccardo —  to identify who ran ten miles over the weekend. She occasionally consults her assistant Cole, who knows some clients better. Here is Sue's list:"",""contextPart2"":""Next up, she wants to record in the list whether <b>JACKSON</b> ran ten miles. Sue says to her business partner:"",""utterance"":""Cole doesn't know that Jackson ran ten miles"",""questionFIRST"":""Given what you have read above, how likely is it that Jackson ran ten miles?"",""questionSECOND"":""Given what you have read above, how likely is it that Cole believes that Jackson ran ten miles?"",""qud"":""ai"",""content"":""jackson"",""image"":""jackson-ai""}",27192.700000047684,NA,"{""stimFIRST"":34,""stimSECOND"":34}","[0,1]",NA,0f628b5b-baf3-4cbb-b294-8d1da7d76a53,2024-03-28 15:13:22 CET
NA,NA,NA,NA,NA,survey,3,98714,0.0-3.0,"{""contextPart1"":""Sue runs a fitness club. She’s currently working through a list of her clients — Kate, Tom, Jackson, Tatiana, and Riccardo —  to identify who ran ten miles over the weekend. She occasionally consults her assistant Cole, who knows some clients better. Here is Sue's list:"",""contextPart2"":""Next up, she wants to record in the list whether <b>JACKSON</b> ran ten miles. Sue says to her business partner:"",""utterance"":""Cole doesn't know that Jackson ran ten miles"",""questionFIRST"":""Given what you have read above, how likely is it that Jackson ran ten miles?"",""questionSECOND"":""Given what you have read above, how likely is it that Cole believes that Jackson ran ten miles?"",""qud"":""ai"",""content"":""jackson"",""image"":""jackson-ai""}",58878,NA,"{""P0_Q0"":null,""age"":""41"",""gender"":""male"",""language"":""yes"",""amE"":""yes"",""edu"":""graduated college"",""comments"":""All good.  Cole isn't the definitive knowledge holder, but it's slightly more likely that he doubts Jackson.""}",NA,[],0f628b5b-baf3-4cbb-b294-8d1da7d76a53,2024-03-28 15:13:22 CET
TRUE,FALSE,[],[],[],preload,0,582,0.0-0.0,"{""contextPart1"":""Sue runs a fitness club. She’s currently working through a list of her clients — Kate, Tom, Jackson, Tatiana, and Riccardo —  to identify who ran ten miles over the weekend. She occasionally consults her assistant Cole, who knows some clients better. Here is Sue's list:"",""contextPart2"":""Next up, she wants to record in the list whether <b>JACKSON</b> ran ten miles. Sue says to her business partner:"",""utterance"":""Cole doesn't know that Jackson ran ten miles"",""questionFIRST"":""Given what you have read above, how likely is it that Jackson ran ten miles?"",""questionSECOND"":""Given what you have read above, how likely is it that Cole believes that Jackson ran ten miles?"",""qud"":""ai"",""content"":""jackson"",""image"":""jackson-ai""}",NA,NA,NA,NA,NA,01a72f0a-1662-4c15-9dd4-67827c08c806,2024-03-28 15:14:15 CET
NA,NA,NA,NA,NA,html-button-response,1,10378,0.0-1.0,"{""contextPart1"":""Sue runs a fitness club. She’s currently working through a list of her clients — Kate, Tom, Jackson, Tatiana, and Riccardo —  to identify who ran ten miles over the weekend. She occasionally consults her assistant Cole, who knows some clients better. Here is Sue's list:"",""contextPart2"":""Next up, she wants to record in the list whether <b>JACKSON</b> ran ten miles. Sue says to her business partner:"",""utterance"":""Cole doesn't know that Jackson ran ten miles"",""questionFIRST"":""Given what you have read above, how likely is it that Jackson ran ten miles?"",""questionSECOND"":""Given what you have read above, how likely is it that Cole believes that Jackson ran ten miles?"",""qud"":""ai"",""content"":""jackson"",""image"":""jackson-ai""}",9792,"<h3>Instructions</h3>  <p style='text-align:left'>In this experiment, you will read a short text and see an image. We will ask you two questions about what you have read. You will give your responses on a slider. </p>  <p style='text-align:left'>At the end of the experiment, we will ask you some demographic questions. The experiment will take less than two minutes.</p>  <p style='text-align:left' font size=""1"">By clicking on the button below you agree to participate in the experiment, which is conducted by language researchers. You may withdraw at any time. The data collected will be anonymous and confidential. If you have any questions, you may contact the experimenters through Prolific's platform.</p>",0,NA,NA,01a72f0a-1662-4c15-9dd4-67827c08c806,2024-03-28 15:14:15 CET
NA,NA,NA,NA,NA,multiple-slider,2,80499,0.0-2.0-0.0,"{""contextPart1"":""Sue runs a fitness club. She’s currently working through a list of her clients — Kate, Tom, Jackson, Tatiana, and Riccardo —  to identify who ran ten miles over the weekend. She occasionally consults her assistant Cole, who knows some clients better. Here is Sue's list:"",""contextPart2"":""Next up, she wants to record in the list whether <b>JACKSON</b> ran ten miles. Sue says to her business partner:"",""utterance"":""Cole doesn't know that Jackson ran ten miles"",""questionFIRST"":""Given what you have read above, how likely is it that Jackson ran ten miles?"",""questionSECOND"":""Given what you have read above, how likely is it that Cole believes that Jackson ran ten miles?"",""qud"":""ai"",""content"":""jackson"",""image"":""jackson-ai""}",70113,NA,"{""stimFIRST"":51,""stimSECOND"":50}","[0,1]",NA,01a72f0a-1662-4c15-9dd4-67827c08c806,2024-03-28 15:14:15 CET
NA,NA,NA,NA,NA,survey,3,106102,0.0-3.0,"{""contextPart1"":""Sue runs a fitness club. She’s currently working through a list of her clients — Kate, Tom, Jackson, Tatiana, and Riccardo —  to identify who ran ten miles over the weekend. She occasionally consults her assistant Cole, who knows some clients better. Here is Sue's list:"",""contextPart2"":""Next up, she wants to record in the list whether <b>JACKSON</b> ran ten miles. Sue says to her business partner:"",""utterance"":""Cole doesn't know that Jackson ran ten miles"",""questionFIRST"":""Given what you have read above, how likely is it that Jackson ran ten miles?"",""questionSECOND"":""Given what you have read above, how likely is it that Cole believes that Jackson ran ten miles?"",""qud"":""ai"",""content"":""jackson"",""image"":""jackson-ai""}",25516,NA,"{""P0_Q0"":null,""age"":""53"",""gender"":""female"",""language"":""yes"",""amE"":""yes"",""edu"":""hold a higher degree"",""comments"":""""}",NA,[],01a72f0a-1662-4c15-9dd4-67827c08c806,2024-03-28 15:14:15 CET
TRUE,FALSE,[],[],[],preload,0,579,0.0-0.0,"{""contextPart1"":""Sue runs a fitness club. She’s currently working through a list of her clients — Kate, Tom, Jackson, Tatiana, and Riccardo —  to identify who ran ten miles over the weekend. She occasionally consults her assistant Cole, who knows some clients better. Here is Sue's list:"",""contextPart2"":""Next up, she wants to record in the list whether <b>JACKSON</b> ran ten miles. Sue says to her business partner:"",""utterance"":""Cole doesn't know that Jackson ran ten miles"",""questionFIRST"":""Given what you have read above, how likely is it that Jackson ran ten miles?"",""questionSECOND"":""Given what you have read above, how likely is it that Cole believes that Jackson ran ten miles?"",""qud"":""ai"",""content"":""jackson"",""image"":""jackson-ai""}",NA,NA,NA,NA,NA,9a191df1-8980-4760-bada-206212dce32a,2024-03-28 15:14:46 CET
NA,NA,NA,NA,NA,html-button-response,1,9620,0.0-1.0,"{""contextPart1"":""Sue runs a fitness club. She’s currently working through a list of her clients — Kate, Tom, Jackson, Tatiana, and Riccardo —  to identify who ran ten miles over the weekend. She occasionally consults her assistant Cole, who knows some clients better. Here is Sue's list:"",""contextPart2"":""Next up, she wants to record in the list whether <b>JACKSON</b> ran ten miles. Sue says to her business partner:"",""utterance"":""Cole doesn't know that Jackson ran ten miles"",""questionFIRST"":""Given what you have read above, how likely is it that Jackson ran ten miles?"",""questionSECOND"":""Given what you have read above, how likely is it that Cole believes that Jackson ran ten miles?"",""qud"":""ai"",""content"":""jackson"",""image"":""jackson-ai""}",9040,"<h3>Instructions</h3>  <p style='text-align:left'>In this experiment, you will read a short text and see an image. We will ask you two questions about what you have read. You will give your responses on a slider. </p>  <p style='text-align:left'>At the end of the experiment, we will ask you some demographic questions. The experiment will take less than two minutes.</p>  <p style='text-align:left' font size=""1"">By clicking on the button below you agree to participate in the experiment, which is conducted by language researchers. You may withdraw at any time. The data collected will be anonymous and confidential. If you have any questions, you may contact the experimenters through Prolific's platform.</p>",0,NA,NA,9a191df1-8980-4760-bada-206212dce32a,2024-03-28 15:14:46 CET
NA,NA,NA,NA,NA,multiple-slider,2,59174,0.0-2.0-0.0,"{""contextPart1"":""Sue runs a fitness club. She’s currently working through a list of her clients — Kate, Tom, Jackson, Tatiana, and Riccardo —  to identify who ran ten miles over the weekend. She occasionally consults her assistant Cole, who knows some clients better. Here is Sue's list:"",""contextPart2"":""Next up, she wants to record in the list whether <b>JACKSON</b> ran ten miles. Sue says to her business partner:"",""utterance"":""Cole doesn't know that Jackson ran ten miles"",""questionFIRST"":""Given what you have read above, how likely is it that Jackson ran ten miles?"",""questionSECOND"":""Given what you have read above, how likely is it that Cole believes that Jackson ran ten miles?"",""qud"":""ai"",""content"":""jackson"",""image"":""jackson-ai""}",49551,NA,"{""stimFIRST"":49,""stimSECOND"":41}","[0,1]",NA,9a191df1-8980-4760-bada-206212dce32a,2024-03-28 15:14:46 CET
NA,NA,NA,NA,NA,survey,3,74968,0.0-3.0,"{""contextPart1"":""Sue runs a fitness club. She’s currently working through a list of her clients — Kate, Tom, Jackson, Tatiana, and Riccardo —  to identify who ran ten miles over the weekend. She occasionally consults her assistant Cole, who knows some clients better. Here is Sue's list:"",""contextPart2"":""Next up, she wants to record in the list whether <b>JACKSON</b> ran ten miles. Sue says to her business partner:"",""utterance"":""Cole doesn't know that Jackson ran ten miles"",""questionFIRST"":""Given what you have read above, how likely is it that Jackson ran ten miles?"",""questionSECOND"":""Given what you have read above, how likely is it that Cole believes that Jackson ran ten miles?"",""qud"":""ai"",""content"":""jackson"",""image"":""jackson-ai""}",15753,NA,"{""P0_Q0"":null,""age"":""29"",""gender"":""male"",""language"":""yes"",""amE"":""yes"",""edu"":""graduated high school"",""comments"":""thank you""}",NA,[],9a191df1-8980-4760-bada-206212dce32a,2024-03-28 15:14:46 CET
TRUE,FALSE,[],[],[],preload,0,781,0.0-0.0,"{""contextPart1"":""Sue runs a fitness club. She’s currently working through a list of her clients — Kate, Tom, Jackson, Tatiana, and Riccardo —  to identify who ran ten miles over the weekend. She occasionally consults her assistant Cole, who knows some clients better. Here is Sue's list:"",""contextPart2"":""Next up, she wants to record in the list whether <b>JACKSON</b> ran ten miles. Sue says to her business partner:"",""utterance"":""Cole knows that Jackson ran ten miles"",""questionFIRST"":""Given what you have read above, how likely is it that Jackson ran ten miles?"",""questionSECOND"":""Given what you have read above, how likely is it that Cole believes that Jackson ran ten miles?"",""qud"":""ai"",""content"":""jackson"",""image"":""jackson-ai""}",NA,NA,NA,NA,NA,c86a40bb-7e8c-4441-a3cd-208529d6c934,2024-03-28 15:14:46 CET
NA,NA,NA,NA,NA,html-button-response,1,15085,0.0-1.0,"{""contextPart1"":""Sue runs a fitness club. She’s currently working through a list of her clients — Kate, Tom, Jackson, Tatiana, and Riccardo —  to identify who ran ten miles over the weekend. She occasionally consults her assistant Cole, who knows some clients better. Here is Sue's list:"",""contextPart2"":""Next up, she wants to record in the list whether <b>JACKSON</b> ran ten miles. Sue says to her business partner:"",""utterance"":""Cole knows that Jackson ran ten miles"",""questionFIRST"":""Given what you have read above, how likely is it that Jackson ran ten miles?"",""questionSECOND"":""Given what you have read above, how likely is it that Cole believes that Jackson ran ten miles?"",""qud"":""ai"",""content"":""jackson"",""image"":""jackson-ai""}",14299,"<h3>Instructions</h3>  <p style='text-align:left'>In this experiment, you will read a short text and see an image. We will ask you two questions about what you have read. You will give your responses on a slider. </p>  <p style='text-align:left'>At the end of the experiment, we will ask you some demographic questions. The experiment will take less than two minutes.</p>  <p style='text-align:left' font size=""1"">By clicking on the button below you agree to participate in the experiment, which is conducted by language researchers. You may withdraw at any time. The data collected will be anonymous and confidential. If you have any questions, you may contact the experimenters through Prolific's platform.</p>",0,NA,NA,c86a40bb-7e8c-4441-a3cd-208529d6c934,2024-03-28 15:14:46 CET
NA,NA,NA,NA,NA,multiple-slider,2,57163,0.0-2.0-0.0,"{""contextPart1"":""Sue runs a fitness club. She’s currently working through a list of her clients — Kate, Tom, Jackson, Tatiana, and Riccardo —  to identify who ran ten miles over the weekend. She occasionally consults her assistant Cole, who knows some clients better. Here is Sue's list:"",""contextPart2"":""Next up, she wants to record in the list whether <b>JACKSON</b> ran ten miles. Sue says to her business partner:"",""utterance"":""Cole knows that Jackson ran ten miles"",""questionFIRST"":""Given what you have read above, how likely is it that Jackson ran ten miles?"",""questionSECOND"":""Given what you have read above, how likely is it that Cole believes that Jackson ran ten miles?"",""qud"":""ai"",""content"":""jackson"",""image"":""jackson-ai""}",42066.10000000149,NA,"{""stimFIRST"":64,""stimSECOND"":100}","[0,1]",NA,c86a40bb-7e8c-4441-a3cd-208529d6c934,2024-03-28 15:14:46 CET
NA,NA,NA,NA,NA,survey,3,99340,0.0-3.0,"{""contextPart1"":""Sue runs a fitness club. She’s currently working through a list of her clients — Kate, Tom, Jackson, Tatiana, and Riccardo —  to identify who ran ten miles over the weekend. She occasionally consults her assistant Cole, who knows some clients better. Here is Sue's list:"",""contextPart2"":""Next up, she wants to record in the list whether <b>JACKSON</b> ran ten miles. Sue says to her business partner:"",""utterance"":""Cole knows that Jackson ran ten miles"",""questionFIRST"":""Given what you have read above, how likely is it that Jackson ran ten miles?"",""questionSECOND"":""Given what you have read above, how likely is it that Cole believes that Jackson ran ten miles?"",""qud"":""ai"",""content"":""jackson"",""image"":""jackson-ai""}",41864,NA,"{""P0_Q0"":null,""age"":""35"",""gender"":""male"",""language"":""yes"",""amE"":""yes"",""edu"":""some college"",""comments"":""thank u for the survey""}",NA,[],c86a40bb-7e8c-4441-a3cd-208529d6c934,2024-03-28 15:14:46 CET
TRUE,FALSE,[],[],[],preload,0,300,0.0-0.0,"{""contextPart1"":""Sue runs a fitness club. She’s currently working through a list of her clients — Kate, Tom, Jackson, Tatiana, and Riccardo —  to identify who ran ten miles over the weekend. She occasionally consults her assistant Cole, who knows some clients better. Here is Sue's list:"",""contextPart2"":""Next up, she wants to record in the list whether <b>JACKSON</b> ran ten miles. Sue says to her business partner:"",""utterance"":""Cole doesn't think that Jackson ran ten miles"",""questionFIRST"":""Given what you have read above, how likely is it that Jackson ran ten miles?"",""questionSECOND"":""Given what you have read above, how likely is it that Cole believes that Jackson ran ten miles?"",""qud"":""ai"",""content"":""jackson"",""image"":""jackson-ai""}",NA,NA,NA,NA,NA,f5e346f5-6c73-4a86-8b89-b6202582f3f6,2024-03-28 15:14:49 CET
NA,NA,NA,NA,NA,html-button-response,1,5552,0.0-1.0,"{""contextPart1"":""Sue runs a fitness club. She’s currently working through a list of her clients — Kate, Tom, Jackson, Tatiana, and Riccardo —  to identify who ran ten miles over the weekend. She occasionally consults her assistant Cole, who knows some clients better. Here is Sue's list:"",""contextPart2"":""Next up, she wants to record in the list whether <b>JACKSON</b> ran ten miles. Sue says to her business partner:"",""utterance"":""Cole doesn't think that Jackson ran ten miles"",""questionFIRST"":""Given what you have read above, how likely is it that Jackson ran ten miles?"",""questionSECOND"":""Given what you have read above, how likely is it that Cole believes that Jackson ran ten miles?"",""qud"":""ai"",""content"":""jackson"",""image"":""jackson-ai""}",5249,"<h3>Instructions</h3>  <p style='text-align:left'>In this experiment, you will read a short text and see an image. We will ask you two questions about what you have read. You will give your responses on a slider. </p>  <p style='text-align:left'>At the end of the experiment, we will ask you some demographic questions. The experiment will take less than two minutes.</p>  <p style='text-align:left' font size=""1"">By clicking on the button below you agree to participate in the experiment, which is conducted by language researchers. You may withdraw at any time. The data collected will be anonymous and confidential. If you have any questions, you may contact the experimenters through Prolific's platform.</p>",0,NA,NA,f5e346f5-6c73-4a86-8b89-b6202582f3f6,2024-03-28 15:14:49 CET
NA,NA,NA,NA,NA,multiple-slider,2,23272,0.0-2.0-0.0,"{""contextPart1"":""Sue runs a fitness club. She’s currently working through a list of her clients — Kate, Tom, Jackson, Tatiana, and Riccardo —  to identify who ran ten miles over the weekend. She occasionally consults her assistant Cole, who knows some clients better. Here is Sue's list:"",""contextPart2"":""Next up, she wants to record in the list whether <b>JACKSON</b> ran ten miles. Sue says to her business partner:"",""utterance"":""Cole doesn't think that Jackson ran ten miles"",""questionFIRST"":""Given what you have read above, how likely is it that Jackson ran ten miles?"",""questionSECOND"":""Given what you have read above, how likely is it that Cole believes that Jackson ran ten miles?"",""qud"":""ai"",""content"":""jackson"",""image"":""jackson-ai""}",17717.40000000596,NA,"{""stimFIRST"":50,""stimSECOND"":50}","[0,1]",NA,f5e346f5-6c73-4a86-8b89-b6202582f3f6,2024-03-28 15:14:49 CET
NA,NA,NA,NA,NA,survey,3,34660,0.0-3.0,"{""contextPart1"":""Sue runs a fitness club. She’s currently working through a list of her clients — Kate, Tom, Jackson, Tatiana, and Riccardo —  to identify who ran ten miles over the weekend. She occasionally consults her assistant Cole, who knows some clients better. Here is Sue's list:"",""contextPart2"":""Next up, she wants to record in the list whether <b>JACKSON</b> ran ten miles. Sue says to her business partner:"",""utterance"":""Cole doesn't think that Jackson ran ten miles"",""questionFIRST"":""Given what you have read above, how likely is it that Jackson ran ten miles?"",""questionSECOND"":""Given what you have read above, how likely is it that Cole believes that Jackson ran ten miles?"",""qud"":""ai"",""content"":""jackson"",""image"":""jackson-ai""}",11354,NA,"{""P0_Q0"":null,""age"":""65"",""gender"":""female"",""language"":""yes"",""amE"":""yes"",""edu"":""hold a higher degree"",""comments"":""""}",NA,[],f5e346f5-6c73-4a86-8b89-b6202582f3f6,2024-03-28 15:14:49 CET
TRUE,FALSE,[],[],[],preload,0,451,0.0-0.0,"{""contextPart1"":""Sue runs a fitness club. She’s currently working through a list of her clients — Kate, Tom, Jackson, Tatiana, and Riccardo —  to identify who ran ten miles over the weekend. She occasionally consults her assistant Cole, who knows some clients better. Here is Sue's list:"",""contextPart2"":""Next up, she wants to record in the list whether <b>JACKSON</b> ran ten miles. Sue says to her business partner:"",""utterance"":""Cole knows that Jackson ran ten miles"",""questionFIRST"":""Given what you have read above, how likely is it that Jackson ran ten miles?"",""questionSECOND"":""Given what you have read above, how likely is it that Cole believes that Jackson ran ten miles?"",""qud"":""ai"",""content"":""jackson"",""image"":""jackson-ai""}",NA,NA,NA,NA,NA,078e5788-51bc-4b0f-86b7-4bda15201361,2024-03-28 15:15:03 CET
